trial_order,participant_ID,stim_id,condition,freq_category,word,subtlex_log10freq,stim_duration,start_time,end_time,key,reaction_time,accuracy,age,sex
0,10,3,rw,LF,imams,0.301,0.653968253968254,49.66522289998829,51.23604619997786,z,1.57082329998957,1,32,male
1,10,89,rw,HF,geweest,4.3568,0.7779138321995465,52.78084129997296,54.76942939998116,m,1.9885881000082009,0,32,male
2,10,73,rw,HF,gemaakt,4.0844,0.8008390022675737,56.313786899962,57.63981869997224,z,1.3260318000102416,1,32,male
3,10,193,nw,NW,nef,0.0,0.4258730158730158,59.178713399975095,60.33551910001552,m,1.1568057000404224,1,32,male
4,10,125,nw,NW,kabrieken,0.0,0.5446258503401361,61.877766699995846,63.3011708999984,m,1.423404200002551,1,32,male
5,10,17,rw,LF,clusters,0.6021,0.7289342403628117,64.84354919998441,66.52571489999536,z,1.6821657000109551,1,32,male
6,10,44,rw,LF,stram,0.8451,0.5876190476190476,68.07560849998845,69.30170549999457,m,1.2260970000061209,0,32,male
7,10,10,rw,LF,sikkels,0.301,0.7240136054421769,70.84110829996644,72.0887144000153,z,1.2476061000488698,1,32,male
8,10,94,rw,HF,gedaan,4.5868,0.6245578231292517,73.64021149999462,75.01631549996091,z,1.3761039999662898,1,32,male
9,10,51,rw,HF,plan,3.7972,0.3517687074829932,76.5562739999732,77.84158700000262,z,1.2853130000294186,1,32,male
10,10,179,nw,NW,monen,0.0,0.4788888888888888,79.38894189998973,80.69307789998129,m,1.3041359999915585,1,32,male
11,10,42,rw,LF,lome,0.8451,0.4866893424036281,82.2378408999648,83.34984779998194,m,1.1120069000171495,0,32,male
12,10,162,nw,NW,gebeikt,0.0,0.8473469387755102,84.88665739999851,86.36875359999249,m,1.4820961999939757,1,32,male
13,10,20,rw,LF,schoffels,0.6021,0.7928571428571428,87.91871160001028,89.0606839999673,z,1.1419723999570124,1,32,male
14,10,12,rw,LF,barse,0.4771,0.5087755102040816,90.60178999998608,91.78968310001072,m,1.1878931000246666,0,32,male
15,10,88,rw,HF,werd,4.3552,0.4824263038548753,93.33383339998544,94.4012769999681,z,1.0674435999826528,1,32,male
16,10,57,rw,HF,reden,3.8548,0.4158049886621315,95.9497468000045,97.24680129997432,z,1.2970544999698177,1,32,male
17,10,143,nw,NW,rakot,0.0,0.6866439909297052,98.79847019998124,100.00606129999504,m,1.2075911000138149,1,32,male
18,10,142,nw,NW,gardien,0.0,0.5500680272108843,101.54766579996794,102.65483239997413,m,1.1071666000061668,1,32,male
19,10,43,rw,LF,stengels,0.8451,0.7586621315192744,104.19677679997405,105.24643070000457,z,1.0496539000305347,1,32,male
20,10,163,nw,NW,plond,0.0,0.5671655328798186,106.7958265999914,108.10783639998408,m,1.3120097999926656,1,32,male
21,10,116,nw,NW,plenk,0.0,0.4568707482993197,109.64503770001464,110.52684509998652,m,0.8818073999718763,1,32,male
22,10,104,nw,NW,goont,0.0,0.6195918367346939,112.07749449997208,113.13641350000398,m,1.0589190000318922,1,32,male
23,10,7,rw,LF,rafel,0.301,0.574421768707483,114.67663239996182,115.77713689999656,z,1.1005045000347309,1,32,male
24,10,95,rw,HF,dood,4.6374,0.5565986394557824,117.32578109996392,118.37389499996787,z,1.0481139000039548,1,32,male
25,10,16,rw,LF,snert,0.4771,0.6224489795918368,119.92487589997472,121.01871739997296,z,1.0938414999982342,1,32,male
26,10,90,rw,HF,wist,4.4149,0.5760997732426304,122.55730079999194,123.53391769999872,z,0.9766169000067748,1,32,male
27,10,1,rw,LF,buidels,0.301,0.7648752834467121,125.07298860000446,126.1017950999667,z,1.0288064999622293,1,32,male
28,10,101,nw,NW,millag,0.0,0.5752380952380952,127.63948650000384,128.78577319998294,m,1.1462866999791004,1,32,male
29,10,26,rw,LF,beitels,0.699,0.7305895691609977,130.338016099995,131.66653399995994,z,1.328517899964936,1,32,male
30,10,62,rw,HF,gaf,3.923,0.5007256235827664,133.20420380000724,134.36781660001725,z,1.1636128000100143,1,32,male
31,10,59,rw,HF,redden,3.8783,0.3632426303854875,135.91935879999073,136.73060529999202,z,0.811246500001289,1,32,male
32,10,176,nw,NW,kwarp,0.0,0.5111791383219955,138.26869180001086,139.33527869998943,m,1.0665868999785744,1,32,male
33,10,134,nw,NW,vrijk,0.0,0.6648299319727892,140.8845025000046,142.18696839996846,m,1.3024658999638632,1,32,male
34,10,178,nw,NW,gimmel,0.0,0.4918140589569161,143.7337472999934,144.9703848999925,m,1.236637599999085,1,32,male
35,10,85,rw,HF,zag,4.3048,0.4990476190476191,146.5158400000073,147.65135790000204,z,1.1355178999947384,1,32,male
36,10,191,nw,NW,darboen,0.0,0.6270748299319728,149.19828459998826,150.47393699997338,m,1.2756523999851197,1,32,male
37,10,112,nw,NW,breent,0.0,0.6899546485260771,152.0139135000063,153.31861839996418,m,1.3047048999578692,1,32,male
38,10,119,nw,NW,doppel,0.0,0.3931292517006802,154.86311510001542,156.02292839996517,m,1.1598132999497466,1,32,male
39,10,22,rw,LF,spurt,0.6021,0.6664625850340136,157.56243180000456,159.09744579996914,z,1.5350139999645762,1,32,male
40,10,28,rw,LF,klavier,0.699,0.6192970521541951,160.64479499997103,161.6599556999863,z,1.015160700015258,1,32,male
41,10,149,nw,NW,leumen,0.0,0.4952834467120181,163.21006810001563,164.23251100000925,m,1.0224428999936208,1,32,male
42,10,190,nw,NW,ploe,0.0,0.233922902494331,165.7761778999702,166.87007080001058,m,1.0938929000403732,1,32,male
43,10,98,rw,HF,had,4.9643,0.4442176870748299,168.4084809999913,169.51876329997322,z,1.1102822999819182,1,32,male
44,10,15,rw,LF,karpers,0.4771,0.6831292517006803,171.0575670999824,172.55581950000487,z,1.4982524000224655,1,32,male
45,10,87,rw,HF,ging,4.3434,0.396734693877551,174.10670539998682,175.1223143999814,z,1.0156089999945834,1,32,male
46,10,105,nw,NW,jugen,0.0,0.5052607709750567,176.67203159997007,177.67073060001712,m,0.998699000047054,1,32,male
47,10,200,nw,NW,fankel,0.0,0.5785260770975057,179.22194339998532,180.17400860000637,m,0.9520652000210248,1,32,male
48,10,77,rw,HF,hen,4.158,0.3445124716553288,181.7206628000131,182.8418594999821,z,1.1211966999690048,1,32,male
49,10,188,nw,NW,klaam,0.0,0.4651700680272109,184.3866076999693,185.45554319996157,m,1.0689354999922216,1,32,male
50,10,93,rw,HF,dacht,4.5313,0.4514512471655328,187.00247750000565,187.86681949999183,z,0.864341999986209,1,32,male
51,10,56,rw,HF,hard,3.8435,0.4832879818594104,189.4178088000044,190.56713079998732,z,1.1493219999829307,1,32,male
52,10,40,rw,LF,topaas,0.7782,0.75421768707483,192.117222699977,193.49918479996268,z,1.3819620999856852,1,32,male
53,10,33,rw,LF,woei,0.699,0.3439455782312925,195.04986749996897,196.0117041000049,z,0.9618366000358948,1,32,male
54,10,185,nw,NW,drintels,0.0,0.7725396825396825,197.54915539996,198.76398839999456,m,1.2148330000345595,1,32,male
55,10,155,nw,NW,pals,0.0,0.4868707482993197,200.3145027999999,201.4863180000102,m,1.1718152000103146,1,32,male
56,10,34,rw,LF,gonsde,0.7782,0.6049886621315193,203.030073300004,204.18646599998465,z,1.1563926999806426,1,32,male
57,10,76,rw,HF,wachten,4.1516,0.4697052154195011,205.7293987000012,206.6669477999676,z,0.937549099966418,1,32,male
58,10,29,rw,LF,lanen,0.699,0.5240136054421769,208.21176549996017,210.07545140001457,z,1.8636859000544064,1,32,male
59,10,63,rw,HF,begin,3.9267,0.4794784580498866,211.6272644000128,212.5408507999964,z,0.9135863999836148,1,32,male
60,10,144,nw,NW,ant,0.0,0.4819501133786848,214.09319589997176,215.64937960001407,m,1.556183700042311,1,32,male
61,10,113,nw,NW,vroel,0.0,0.5116326530612245,217.1917805999983,218.55449820001377,m,1.3627176000154575,1,32,male
62,10,157,nw,NW,udel,0.0,0.3563038548752834,220.09103379998123,221.538043699984,m,1.4470099000027403,1,32,male
63,10,23,rw,LF,strotten,0.6021,0.5194104308390023,223.0897475999664,224.24899479997111,z,1.1592472000047565,1,32,male
64,10,189,nw,NW,trorg,0.0,0.5636507936507936,225.78887290001148,226.82645419996695,m,1.037581299955491,1,32,male
65,10,198,nw,NW,snarpen,0.0,0.6049886621315193,228.37142430001404,229.59649709996305,m,1.2250727999489754,1,32,male
66,10,139,nw,NW,stodeum,0.0,0.6441043083900226,231.1374388000113,233.0031227999716,m,1.8656839999603108,1,32,male
67,10,167,nw,NW,pectars,0.0,0.6901814058956917,234.55289749999065,236.15247329999693,m,1.599575800006278,1,32,male
68,10,169,nw,NW,plin,0.0,0.3179818594104308,237.70186430000467,238.81929379998476,m,1.1174294999800622,1,32,male
69,10,153,nw,NW,entel,0.0,0.5228344671201814,240.36737930000527,241.53841649997048,m,1.1710371999652125,1,32,male
70,10,121,nw,NW,nammer,0.0,0.3958503401360544,243.08426319999853,244.2526966999867,m,1.1684334999881685,1,32,male
71,10,48,rw,LF,balkons,0.9542,0.7699773242630386,245.7992147000041,246.86850069998764,z,1.0692859999835491,1,32,male
72,10,46,rw,LF,lijsters,0.9031,0.7591836734693878,248.41486570000416,249.56247629999416,z,1.1476105999900028,1,32,male
73,10,137,nw,NW,smaan,0.0,0.5507256235827664,251.1140366999898,252.5615350999869,m,1.44749839999713,1,32,male
74,10,106,nw,NW,slont,0.0,0.6466439909297053,254.11293419997676,255.56446540000616,m,1.4515312000294216,1,32,male
75,10,128,nw,NW,kandola,0.0,0.5002040816326531,257.1118184999796,259.2065398999839,z,2.094721400004346,0,32,male
76,10,107,nw,NW,gals,0.0,0.6466213151927438,260.74418109998805,262.13738460000604,m,1.3932035000179894,1,32,male
77,10,145,nw,NW,bezans,0.0,0.7936507936507936,263.6763310999959,265.17339770001126,m,1.497066600015387,1,32,male
78,10,49,rw,LF,bonkte,0.9542,0.4835600907029478,266.7253972999752,267.6345526999794,z,0.909155400004238,1,32,male
79,10,166,nw,NW,mijk,0.0,0.5443537414965987,269.17458170000464,270.88932789996034,m,1.714746199955698,1,32,male
80,10,168,nw,NW,stiraal,0.0,0.770045351473923,272.43994040001417,273.9400654999772,m,1.5001250999630429,1,32,male
81,10,11,rw,LF,stekken,0.301,0.4987074829931973,275.48934809997445,277.0482937999768,z,1.5589457000023683,1,32,male
82,10,156,nw,NW,loedsels,0.0,0.7686848072562358,278.5880191999604,279.94779949996155,m,1.359780300001148,1,32,male
83,10,80,rw,HF,eigen,4.1922,0.4820181405895691,281.4870663000038,282.51225699996576,z,1.0251906999619678,1,32,male
84,10,103,nw,NW,brum,0.0,0.3432879818594104,284.0528391000116,285.1358506999677,m,1.0830115999560803,1,32,male
85,10,8,rw,LF,ratels,0.301,0.8842857142857142,286.68530169996666,287.9030204999726,z,1.2177188000059689,1,32,male
86,10,31,rw,LF,porde,0.699,0.3671201814058957,289.45102689997293,290.99709309998434,m,1.5460662000114098,0,32,male
87,10,109,nw,NW,giep,0.0,0.4608390022675737,292.53374189999886,293.9284696999821,z,1.3947277999832297,0,32,male
88,10,24,rw,LF,wrongel,0.6021,0.5386848072562358,295.465873499983,297.6051900999737,m,2.139316599990707,0,32,male
89,10,82,rw,HF,morgen,4.2678,0.4886621315192744,299.1475805999944,300.03807020001113,z,0.8904896000167355,1,32,male
90,10,180,nw,NW,kijs,0.0,0.5234920634920635,301.58025830000406,302.7528677000082,m,1.1726094000041485,1,32,male
91,10,52,rw,HF,hield,3.8191,0.5931292517006803,304.29606379999314,305.8807807000121,z,1.5847169000189751,1,32,male
92,10,71,rw,HF,ogen,4.0572,0.4824036281179138,307.42830989998765,308.4781614000094,z,1.0498515000217594,1,32,male
93,10,92,rw,HF,moeder,4.4554,0.4240362811791383,310.0277490000008,311.13270829996327,z,1.104959299962502,1,32,male
94,10,14,rw,LF,juffen,0.4771,0.4445124716553288,312.67662430001656,314.2725584,z,1.595934099983424,1,32,male
95,10,187,nw,NW,gevupt,0.0,0.6875963718820862,315.80888550000964,316.9159098999808,m,1.1070243999711238,1,32,male
96,10,111,nw,NW,kormel,0.0,0.4885487528344671,318.4582063999842,319.426296599966,m,0.968090199981816,1,32,male
97,10,151,nw,NW,plirken,0.0,0.5466893424036281,320.97382349998225,321.93307229998754,m,0.959248800005298,1,32,male
98,10,37,rw,LF,rogge,0.7782,0.4180952380952381,323.47288069996284,324.4811749999644,z,1.0082943000015805,1,32,male
99,10,186,nw,NW,brad,0.0,0.4661451247165533,326.02196189999813,327.003401199996,m,0.9814392999978736,1,32,male
100,10,171,nw,NW,glijp,0.0,0.5592063492063492,328.5546308999765,329.8235023000161,m,1.268871400039643,1,32,male
101,10,30,rw,LF,oker,0.699,0.3913151927437642,331.37022599997,332.4829679999966,z,1.1127420000266284,1,32,male
102,10,174,nw,NW,bluurde,0.0,0.4874149659863945,334.01921679999214,335.2706967999693,z,1.251479999977164,0,32,male
103,10,194,nw,NW,pruit,0.0,0.6024716553287982,336.81841690000147,337.8005662999931,m,0.9821493999916128,1,32,male
104,10,115,nw,NW,liek,0.0,0.4517687074829932,339.3513054999639,341.2934857999789,m,1.9421803000150248,1,32,male
105,10,25,rw,LF,ambten,0.699,0.3910430839002267,342.8330594999716,344.48559270001715,m,1.652533200045582,0,32,male
106,10,141,nw,NW,kimensie,0.0,0.666984126984127,346.0319232000038,347.11190570000326,m,1.0799824999994598,1,32,male
107,10,192,nw,NW,megen,0.0,0.484172335600907,348.6483373999945,349.8355002999888,m,1.1871628999942914,1,32,male
108,10,138,nw,NW,glaf,0.0,0.5436281179138323,351.3802355999942,352.85091430001194,m,1.4706787000177428,1,32,male
109,10,126,nw,NW,zelijk,0.0,0.7470521541950114,354.3958022000152,356.37906989996554,m,1.9832676999503749,1,32,male
110,10,79,rw,HF,uur,4.1832,0.3304988662131519,357.9279024999705,358.7082845999976,z,0.7803821000270545,1,32,male
111,10,182,nw,NW,hormen,0.0,0.3752380952380952,360.26035459997365,361.94096450001234,z,1.6806099000386894,0,32,male
112,10,197,nw,NW,zerder,0.0,0.5083673469387755,363.4926792999613,365.36501120001776,m,1.872331900056452,1,32,male
113,10,164,nw,NW,snoen,0.0,0.490702947845805,366.90833830001066,368.5633992999792,m,1.6550609999685548,1,32,male
114,10,97,rw,HF,zeg,4.6872,0.488843537414966,370.10680680000223,371.0974626999814,z,0.990655899979174,1,32,male
115,10,165,nw,NW,tombel,0.0,0.4472108843537415,372.6400635999744,374.9517586000147,z,2.311695000040345,0,32,male
116,10,69,rw,HF,sta,4.0123,0.4588888888888889,376.4884568999987,378.1568160000024,z,1.6683591000037268,1,32,male
117,10,110,nw,NW,women,0.0,0.4578684807256236,379.7040758999647,380.7527301000082,m,1.0486542000435293,1,32,male
118,10,161,nw,NW,gietsen,0.0,0.515827664399093,382.3029474999639,383.4259628999862,m,1.1230154000222683,1,32,male
119,10,196,nw,NW,rokan,0.0,0.6312244897959184,384.96886079997057,386.2601707999711,m,1.2913100000005215,1,32,male
120,10,132,nw,NW,fradingo,0.0,0.7437868480725623,387.8012480000034,389.1738031000132,m,1.3725551000097769,1,32,male
121,10,140,nw,NW,murselein,0.0,0.7366666666666667,390.7167474000016,392.1504676999757,m,1.433720299974084,1,32,male
122,10,47,rw,LF,venkel,0.9031,0.5343537414965986,393.6992278000107,394.63249049999285,z,0.9332626999821514,1,32,male
123,10,184,nw,NW,rieve,0.0,0.4558049886621315,396.1822314999881,397.4166845,m,1.234453000011854,1,32,male
124,10,32,rw,LF,suste,0.699,0.6104761904761905,398.964038599981,400.0992364999838,z,1.1351979000028225,1,32,male
125,10,72,rw,HF,lekker,4.082,0.3890249433106576,401.6466472999891,402.8880959000089,z,1.241448600019794,1,32,male
126,10,84,rw,HF,auto,4.3017,0.4550793650793651,404.42891560000135,405.3738945999648,z,0.944978999963496,1,32,male
127,10,5,rw,LF,ponten,0.301,0.4158956916099773,406.9115674999776,408.3746404999984,m,1.4630730000208132,0,32,male
128,10,53,rw,HF,boek,3.8196,0.4394104308390023,409.9105048999773,410.83478219999233,z,0.924277300015092,1,32,male
129,10,148,nw,NW,kadders,0.0,0.5390929705215419,412.37624050001614,413.3420738999848,m,0.9658333999686874,1,32,male
130,10,68,rw,HF,soort,3.9872,0.6407256235827664,414.89210349996574,415.9294845999684,z,1.0373811000026762,1,32,male
131,10,122,nw,NW,bluit,0.0,0.7464399092970522,417.4747381999623,418.64109369996,m,1.166355499997735,1,32,male
132,10,133,nw,NW,gefruld,0.0,0.88281179138322,420.1902575999848,421.694056599983,m,1.5037989999982528,1,32,male
133,10,183,nw,NW,zuun,0.0,0.4292517006802721,423.2393474999699,424.1841966999928,m,0.9448492000228724,1,32,male
134,10,35,rw,LF,margriet,0.7782,0.6709297052154195,425.7227583999629,426.7606411000015,z,1.0378827000386082,1,32,male
135,10,91,rw,HF,hele,4.4246,0.4885714285714285,428.3040766000049,429.5979663999751,z,1.293889799970202,1,32,male
136,10,6,rw,LF,puien,0.301,0.3691156462585034,431.1368743999629,431.9949214999797,m,0.8580471000168473,0,32,male
137,10,60,rw,HF,vallen,3.8985,0.3511791383219955,433.5359547999688,434.4827289999812,z,0.9467742000124416,1,32,male
138,10,55,rw,HF,recht,3.8432,0.5463718820861678,436.0350979999639,437.4979466999648,z,1.4628487000009045,1,32,male
139,10,78,rw,HF,open,4.1693,0.3699092970521542,439.0341389999958,439.91571590001695,z,0.8815769000211731,1,32,male
140,10,135,nw,NW,vlorken,0.0,0.5808390022675737,441.4665723000071,442.75617409998085,m,1.2896017999737523,1,32,male
141,10,172,nw,NW,vlump,0.0,0.573469387755102,444.2989932000055,445.240271299961,m,0.9412780999555252,1,32,male
142,10,75,rw,HF,vroeg,4.1163,0.5487074829931973,446.7813770999783,447.75740299996687,z,0.9760258999885992,1,32,male
143,10,99,rw,HF,bij,5.0328,0.3325170068027211,449.29700610000873,450.1683874999872,z,0.8713813999784179,1,32,male
144,10,13,rw,LF,gevels,0.4771,0.8220181405895691,451.713203399966,452.98076589999255,z,1.2675625000265427,1,32,male
145,10,146,nw,NW,gewunnen,0.0,0.5544671201814059,454.52964189997874,455.7461146999849,m,1.2164728000061586,1,32,male
146,10,152,nw,NW,grede,0.0,0.5429478458049887,457.2945342999883,459.0293141999864,m,1.7347798999981023,1,32,male
147,10,100,rw,HF,kom,5.0578,0.2878458049886621,460.5767348000081,461.6139286999824,z,1.037193899974227,1,32,male
148,10,159,nw,NW,rastel,0.0,0.6509297052154195,463.1596064000041,464.4343449000153,m,1.2747385000111535,1,32,male
149,10,158,nw,NW,rufel,0.0,0.5402267573696146,465.9748951999936,467.5356669999892,m,1.560771799995564,1,32,male
150,10,120,nw,NW,verke,0.0,0.5179818594104308,469.073867900006,470.3679997000145,m,1.294131800008472,1,32,male
151,10,123,nw,NW,kiemeten,0.0,0.6588888888888889,471.9067097000079,473.1930975000141,m,1.286387800006196,1,32,male
152,10,154,nw,NW,gefaapt,0.0,0.8487528344671201,474.738592699985,476.20983179996256,m,1.471239099977538,1,32,male
153,10,114,nw,NW,gesmalpt,0.0,0.8913605442176871,477.7543130000122,479.43307739996817,m,1.6787643999559805,1,32,male
154,10,127,nw,NW,sluinen,0.0,0.6306575963718821,480.9698348999955,482.2061352999881,m,1.236300399992615,1,32,male
155,10,61,rw,HF,los,3.9075,0.5018140589569161,483.7526052999892,484.5588334999629,z,0.8062281999737024,1,32,male
156,10,160,nw,NW,jaat,0.0,0.6258956916099774,486.1016861000098,487.5706739000161,m,1.468987800006289,1,32,male
157,10,181,nw,NW,herken,0.0,0.5039455782312925,489.1170341999969,490.0406242000172,z,0.92359000002034,0,32,male
158,10,175,nw,NW,nergen,0.0,0.5445804988662132,491.5830793000059,493.1574339999934,m,1.5743546999874525,1,32,male
159,10,173,nw,NW,klaap,0.0,0.5418140589569161,494.6986408999656,495.9494456999819,m,1.25080480001634,1,32,male
160,10,199,nw,NW,spodiel,0.0,0.7211791383219954,497.4977334999712,498.992035800009,m,1.4943023000378162,1,32,male
161,10,86,rw,HF,idee,4.3247,0.4575056689342404,500.5298950999859,501.3694669000106,z,0.8395718000247143,1,32,male
162,10,41,rw,LF,zolders,0.7782,0.7216780045351474,502.9124079999747,504.0090708999778,z,1.096662900003139,1,32,male
163,10,70,rw,HF,juist,4.0152,0.5870521541950113,505.54499339999165,506.6838071999955,z,1.1388138000038452,1,32,male
164,10,21,rw,LF,schuiten,0.6021,0.6056009070294784,508.2273620999768,509.4256457000156,z,1.1982836000388488,1,32,male
165,10,147,nw,NW,kuukt,0.0,0.4436734693877551,510.9770946999779,512.348092500004,m,1.370997800026089,1,32,male
166,10,170,nw,NW,moksen,0.0,0.514172335600907,513.8921056999825,515.4220856999746,m,1.5299799999920651,1,32,male
167,10,45,rw,LF,grief,0.9031,0.5177777777777778,516.9744470000151,518.2000970999943,z,1.225650099979248,1,32,male
168,10,64,rw,HF,bezig,3.934,0.6209523809523809,519.7401686999947,521.5427240999998,z,1.802555400005076,1,32,male
169,10,66,rw,HF,wakker,3.9448,0.4293424036281179,523.0888664000086,523.9092301999917,z,0.8203637999831699,1,32,male
170,10,36,rw,LF,metrum,0.7782,0.5541950113378685,525.4548712999676,526.4764823999722,z,1.0216111000045205,1,32,male
171,10,58,rw,HF,heren,3.8659,0.4917006802721088,528.0210640999721,528.987530399987,z,0.966466300014872,1,32,male
172,10,50,rw,LF,gisten,0.9542,0.5466213151927438,530.5364225999801,531.7511887999717,z,1.2147661999915726,1,32,male
173,10,96,rw,HF,zit,4.666,0.4542176870748299,533.3023013999918,534.3397149000084,z,1.0374135000165552,1,32,male
174,10,150,nw,NW,knaarde,0.0,0.5770975056689343,535.8848013000097,537.1742665999918,m,1.289465299982112,1,32,male
175,10,81,rw,HF,krijg,4.214,0.5826757369614513,538.7169123999774,540.1349713999662,z,1.418058999988716,1,32,male
176,10,83,rw,HF,vraag,4.281,0.615827664399093,541.682774099987,542.9134703999734,z,1.230696299986448,1,32,male
177,10,18,rw,LF,deun,0.6021,0.4665532879818594,544.4651827999623,545.4707526999991,z,1.0055699000367897,1,32,male
178,10,129,nw,NW,grantel,0.0,0.613718820861678,547.014288300008,548.1595814999891,m,1.1452931999810971,1,32,male
179,10,67,rw,HF,plaats,3.97,0.6054195011337868,549.6968245999888,551.4845169999753,z,1.787692399986554,1,32,male
180,10,4,rw,LF,polders,0.301,0.5961451247165533,553.0289998999797,553.9045171999605,z,0.8755172999808565,1,32,male
181,10,124,nw,NW,vebras,0.0,0.8917233560090703,555.4449249999598,556.8964502000017,m,1.4515252000419423,1,32,male
182,10,102,nw,NW,labber,0.0,0.4050793650793651,558.4439864999731,560.2132836999954,m,1.769297200022265,1,32,male
183,10,27,rw,LF,flans,0.699,0.6479591836734694,561.7598843000014,562.8627565999632,m,1.1028722999617455,0,32,male
184,10,38,rw,LF,sfinxen,0.7782,0.6166213151927438,564.4083809999865,565.7530246999813,z,1.3446436999947764,1,32,male
185,10,131,nw,NW,rogenten,0.0,0.6747845804988662,567.290855499974,568.7968804999837,m,1.5060250000096858,1,32,male
186,10,54,rw,HF,baby,3.8221,0.4545578231292517,570.3401467999793,571.5288623999804,z,1.18871560000116,1,32,male
187,10,39,rw,LF,sjalot,0.7782,0.5982312925170068,573.0722620000015,574.1585033999872,z,1.086241399985738,1,32,male
188,10,65,rw,HF,zoek,3.9398,0.4944671201814059,575.7047526999959,576.5159746999852,z,0.8112219999893568,1,32,male
189,10,108,nw,NW,geslonden,0.0,0.7017006802721089,578.0541258999729,579.5709406000096,m,1.516814700036775,1,32,male
190,10,2,rw,LF,hese,0.301,0.5392290249433107,581.1195861999877,582.5826869999873,m,1.4631007999996657,0,32,male
191,10,118,nw,NW,prookt,0.0,0.6648299319727892,584.1352236999664,585.7028903000173,m,1.5676666000508703,1,32,male
192,10,130,nw,NW,bralat,0.0,0.6841950113378685,587.2505134000094,588.347268100013,m,1.0967547000036575,1,32,male
193,10,74,rw,HF,help,4.0879,0.4439455782312925,589.8831831999705,590.7581033000024,z,0.8749201000318862,1,32,male
194,10,9,rw,LF,reigers,0.301,0.7401587301587301,592.2995392999728,593.4066559000057,z,1.1071166000328958,1,32,male
195,10,195,nw,NW,pirrel,0.0,0.361156462585034,594.9482592999702,595.9947830999736,m,1.0465238000033423,1,32,male
196,10,19,rw,LF,etui,0.6021,0.4205895691609977,597.5306276999763,598.5310986000113,z,1.0004709000349976,1,32,male
197,10,177,nw,NW,rons,0.0,0.5964625850340136,600.0795854000025,602.3091110999812,m,2.2295256999786943,1,32,male
198,10,136,nw,NW,kumus,0.0,0.5232653061224489,603.8454733999679,604.9393427000032,m,1.093869300035294,1,32,male
199,10,117,nw,NW,groeken,0.0,0.4692290249433106,606.4777652999619,607.6419985999819,m,1.164233300019987,1,32,male
0,11,18,rw,LF,deun,0.6021,0.4665532879818594,6.812496699974872,10.543043399986344,m,3.730546700011473,0,28,female
1,11,68,rw,HF,soort,3.9872,0.6407256235827664,12.094545700005256,13.98290189995896,z,1.888356199953705,1,28,female
2,11,146,nw,NW,gewunnen,0.0,0.5544671201814059,15.52670049999142,16.876220699981786,m,1.3495201999903657,1,28,female
3,11,104,nw,NW,goont,0.0,0.6195918367346939,18.42572389997076,19.709303099953104,m,1.2835791999823414,1,28,female
4,11,40,rw,LF,topaas,0.7782,0.75421768707483,21.25798949995078,22.402304099989124,z,1.1443146000383422,1,28,female
5,11,103,nw,NW,brum,0.0,0.3432879818594104,23.94073869998101,24.921681999985594,m,0.9809433000045829,1,28,female
6,11,107,nw,NW,gals,0.0,0.6466213151927438,26.473045099992305,27.758940599975176,z,1.2858954999828711,0,28,female
7,11,89,rw,HF,geweest,4.3568,0.7779138321995465,29.3051042999723,30.395651999977417,z,1.0905477000051178,1,28,female
8,11,145,nw,NW,bezans,0.0,0.7936507936507936,31.937828699999955,33.23703019996174,m,1.2992014999617822,1,28,female
9,11,54,rw,HF,baby,3.8221,0.4545578231292517,34.78727369999979,35.67899529996794,z,0.8917215999681503,1,28,female
10,11,119,nw,NW,doppel,0.0,0.3931292517006802,37.219721799949184,38.17727499996545,m,0.957553200016264,1,28,female
11,11,116,nw,NW,plenk,0.0,0.4568707482993197,39.71874799998477,40.67342429998098,m,0.9546762999962084,1,28,female
12,11,46,rw,LF,lijsters,0.9031,0.7591836734693878,42.21738269994967,43.25312329997541,z,1.035740600025747,1,28,female
13,11,169,nw,NW,plin,0.0,0.3179818594104308,44.800428899994586,45.59618120000232,m,0.7957523000077344,1,28,female
14,11,4,rw,LF,polders,0.301,0.5961451247165533,47.132727699994575,47.95617129997117,z,0.8234435999765992,1,28,female
15,11,129,nw,NW,grantel,0.0,0.613718820861678,49.49847180000506,50.46635519998381,m,0.9678833999787456,1,28,female
16,11,37,rw,LF,rogge,0.7782,0.4180952380952381,52.01412769994931,53.196412099990994,z,1.1822844000416808,1,28,female
17,11,101,nw,NW,millag,0.0,0.5752380952380952,54.74668329994893,55.70777310000267,m,0.9610898000537418,1,28,female
18,11,157,nw,NW,udel,0.0,0.3563038548752834,57.24592459999258,58.11658449994866,m,0.8706598999560811,1,28,female
19,11,118,nw,NW,prookt,0.0,0.6648299319727892,59.66174179996597,60.76908379996894,m,1.1073420000029728,1,28,female
20,11,152,nw,NW,grede,0.0,0.5429478458049887,62.31143509998219,63.3252626999747,z,1.01382759999251,0,28,female
21,11,43,rw,LF,stengels,0.8451,0.7586621315192744,64.8768234999734,66.69585749995895,z,1.8190339999855496,1,28,female
22,11,136,nw,NW,kumus,0.0,0.5232653061224489,68.24192439997569,69.66739969997434,m,1.4254752999986522,1,28,female
23,11,32,rw,LF,suste,0.699,0.6104761904761905,71.20783219998702,72.4915914000012,z,1.283759200014174,1,28,female
24,11,45,rw,LF,grief,0.9031,0.5177777777777778,74.04034459998365,75.16961789998459,m,1.129273300000932,0,28,female
25,11,2,rw,LF,hese,0.301,0.5392290249433107,76.70600639999611,78.06008639995707,m,1.354079999960959,0,28,female
26,11,178,nw,NW,gimmel,0.0,0.4918140589569161,79.60502249997808,81.04882249998627,m,1.4438000000081956,1,28,female
27,11,148,nw,NW,kadders,0.0,0.5390929705215419,82.58730479999213,83.72369489999255,z,1.1363901000004262,0,28,female
28,11,113,nw,NW,vroel,0.0,0.5116326530612245,85.26989789999789,86.48055719997501,z,1.2106592999771235,0,28,female
29,11,139,nw,NW,stodeum,0.0,0.6441043083900226,88.01949360000435,89.56563149997965,m,1.5461378999752924,1,28,female
30,11,158,nw,NW,rufel,0.0,0.5402267573696146,91.11790289997587,92.51107979996596,z,1.3931768999900669,0,28,female
31,11,128,nw,NW,kandola,0.0,0.5002040816326531,94.0505669999984,95.63437899999552,z,1.583811999997124,0,28,female
32,11,86,rw,HF,idee,4.3247,0.4575056689342404,97.18222979997518,98.14481489994796,z,0.9625850999727844,1,28,female
33,11,121,nw,NW,nammer,0.0,0.3958503401360544,99.68148619995918,100.5807719999575,m,0.8992857999983244,1,28,female
34,11,28,rw,LF,klavier,0.699,0.6192970521541951,102.13070419995348,103.17535039997892,z,1.0446462000254542,1,28,female
35,11,122,nw,NW,bluit,0.0,0.7464399092970522,104.71336699998938,105.979571999982,m,1.266204999992624,1,28,female
36,11,19,rw,LF,etui,0.6021,0.4205895691609977,107.5290182000026,108.61646069999551,z,1.087442499992903,1,28,female
37,11,80,rw,HF,eigen,4.1922,0.4820181405895691,110.16181899997171,111.30784339999082,z,1.146024400019087,1,28,female
38,11,195,nw,NW,pirrel,0.0,0.361156462585034,112.8441024000058,113.75115259998712,m,0.9070501999813132,1,28,female
39,11,81,rw,HF,krijg,4.214,0.5826757369614513,115.29321199998958,116.58459009998478,m,1.2913780999951996,0,28,female
40,11,47,rw,LF,venkel,0.9031,0.5343537414965986,118.12555070000236,119.12319939996814,z,0.9976486999657936,1,28,female
41,11,179,nw,NW,monen,0.0,0.4788888888888888,120.6748598999693,121.92661520000549,m,1.251755300036166,1,28,female
42,11,137,nw,NW,smaan,0.0,0.5507256235827664,123.47358759999042,124.88987590000032,m,1.41628830000991,1,28,female
43,11,79,rw,HF,uur,4.1832,0.3304988662131519,126.43920119997348,127.21698669996113,z,0.7777854999876581,1,28,female
44,11,22,rw,LF,spurt,0.6021,0.6664625850340136,128.75521029997617,130.3795959999552,z,1.6243856999790296,1,28,female
45,11,133,nw,NW,gefruld,0.0,0.88281179138322,131.92069050000282,133.65758159995312,m,1.736891099950299,1,28,female
46,11,131,nw,NW,rogenten,0.0,0.6747845804988662,135.2029099999927,136.7729943000013,m,1.5700843000086024,1,28,female
47,11,94,rw,HF,gedaan,4.5868,0.6245578231292517,138.3186493999674,139.358835299965,z,1.0401858999975957,1,28,female
48,11,38,rw,LF,sfinxen,0.7782,0.6166213151927438,140.901172199985,142.2715321999858,z,1.370360000000801,1,28,female
49,11,5,rw,LF,ponten,0.301,0.4158956916099773,143.81674189999467,145.09802380000474,z,1.2812819000100717,1,28,female
50,11,186,nw,NW,brad,0.0,0.4661451247165533,146.64908569998806,147.76531299995258,z,1.116227299964521,0,28,female
51,11,149,nw,NW,leumen,0.0,0.4952834467120181,149.31488399999216,150.54590749996714,m,1.231023499974981,1,28,female
52,11,189,nw,NW,trorg,0.0,0.5636507936507936,152.0971798999817,153.1450429999968,m,1.0478631000150926,1,28,female
53,11,180,nw,NW,kijs,0.0,0.5234920634920635,154.69619960000273,156.34896159998607,z,1.6527619999833405,0,28,female
54,11,130,nw,NW,bralat,0.0,0.6841950113378685,157.89538229996106,159.3554077000008,m,1.46002540003974,1,28,female
55,11,53,rw,HF,boek,3.8196,0.4394104308390023,160.89412119996268,161.69563390000258,z,0.8015127000398934,1,28,female
56,11,82,rw,HF,morgen,4.2678,0.4886621315192744,163.24393299996154,164.53444309998304,z,1.2905101000214927,1,28,female
57,11,1,rw,LF,buidels,0.301,0.7648752834467121,166.07612359995255,167.3924921999569,z,1.3163686000043526,1,28,female
58,11,155,nw,NW,pals,0.0,0.4868707482993197,168.94161729997722,169.95072549994802,m,1.0091081999707967,1,28,female
59,11,126,nw,NW,zelijk,0.0,0.7470521541950114,171.49079339997843,172.630169299955,z,1.139375899976585,0,28,female
60,11,177,nw,NW,rons,0.0,0.5964625850340136,174.17379259999143,175.30742879997706,m,1.1336361999856308,1,28,female
61,11,176,nw,NW,kwarp,0.0,0.5111791383219955,176.85567509999964,178.44527799997013,m,1.5896028999704868,1,28,female
62,11,51,rw,HF,plan,3.7972,0.3517687074829932,179.98788159998367,180.805651499948,z,0.8177698999643326,1,28,female
63,11,76,rw,HF,wachten,4.1516,0.4697052154195011,182.35395199997583,183.2100131000043,z,0.8560611000284553,1,28,female
64,11,102,nw,NW,labber,0.0,0.4050793650793651,184.75308769999535,185.823257299955,m,1.0701695999596268,1,28,female
65,11,170,nw,NW,moksen,0.0,0.514172335600907,187.3699301999877,189.5848189999815,m,2.214888799993787,1,28,female
66,11,96,rw,HF,zit,4.666,0.4542176870748299,191.1340763999615,191.9984607999795,z,0.8643844000180252,1,28,female
67,11,42,rw,LF,lome,0.8451,0.4866893424036281,193.5498263000045,195.17746239999545,m,1.627636099990923,0,28,female
68,11,17,rw,LF,clusters,0.6021,0.7289342403628117,196.7156852000044,197.7965772000025,z,1.08089199999813,1,28,female
69,11,106,nw,NW,slont,0.0,0.6466439909297053,199.34842689998916,200.67061819997616,z,1.3221912999870256,0,28,female
70,11,73,rw,HF,gemaakt,4.0844,0.8008390022675737,202.21391940000467,203.20605139998952,z,0.9921319999848492,1,28,female
71,11,192,nw,NW,megen,0.0,0.484172335600907,204.7462300999905,206.335285499983,m,1.5890553999925032,1,28,female
72,11,109,nw,NW,giep,0.0,0.4608390022675737,207.87848439998925,208.78698219999205,z,0.908497800002806,0,28,female
73,11,27,rw,LF,flans,0.699,0.6479591836734694,210.32779680000385,211.40614300000016,m,1.0783461999963038,0,28,female
74,11,197,nw,NW,zerder,0.0,0.5083673469387755,212.9435805999674,214.05532260000476,m,1.1117420000373386,1,28,female
75,11,193,nw,NW,nef,0.0,0.4258730158730158,215.5925450999639,216.66653819999192,m,1.0739931000280194,1,28,female
76,11,95,rw,HF,dood,4.6374,0.5565986394557824,218.2082705999492,219.1752141999896,z,0.9669436000403948,1,28,female
77,11,6,rw,LF,puien,0.301,0.3691156462585034,220.724431599956,221.73126889998093,z,1.0068373000249269,1,28,female
78,11,166,nw,NW,mijk,0.0,0.5443537414965987,223.273451999994,224.2682397000026,z,0.994787700008601,0,28,female
79,11,11,rw,LF,stekken,0.301,0.4987074829931973,225.805612199998,227.498339999991,z,1.6927277999930084,1,28,female
80,11,57,rw,HF,reden,3.8548,0.4158049886621315,229.0378294999828,230.395227699948,z,1.357398199965246,1,28,female
81,11,72,rw,HF,lekker,4.082,0.3890249433106576,231.9370034000021,232.7655506999581,z,0.8285472999559715,1,28,female
82,11,183,nw,NW,zuun,0.0,0.4292517006802721,234.30291999998732,235.5922724999837,m,1.289352499996312,1,28,female
83,11,190,nw,NW,ploe,0.0,0.233922902494331,237.1352983999532,238.41981870000015,m,1.2845203000470065,1,28,female
84,11,78,rw,HF,open,4.1693,0.3699092970521542,239.96774789999472,241.31960689998232,z,1.3518589999875985,1,28,female
85,11,41,rw,LF,zolders,0.7782,0.7216780045351474,242.8670144999633,243.8723508999683,z,1.005336400005035,1,28,female
86,11,64,rw,HF,bezig,3.934,0.6209523809523809,245.4163258000044,246.41104129998712,z,0.9947154999827036,1,28,female
87,11,50,rw,LF,gisten,0.9542,0.5466213151927438,247.94817109999715,248.83728809998135,z,0.8891169999842532,1,28,female
88,11,171,nw,NW,glijp,0.0,0.5592063492063492,250.3808318999945,251.4522047999781,m,1.071372899983544,1,28,female
89,11,84,rw,HF,auto,4.3017,0.4550793650793651,252.99665059999097,253.84965970000485,z,0.8530091000138782,1,28,female
90,11,191,nw,NW,darboen,0.0,0.6270748299319728,255.39571319997776,256.4636831999524,m,1.0679699999745935,1,28,female
91,11,159,nw,NW,rastel,0.0,0.6509297052154195,258.0117678999668,259.1760001999792,m,1.1642323000123724,1,28,female
92,11,97,rw,HF,zeg,4.6872,0.488843537414966,260.72714809997706,261.63755659997696,z,0.9104084999999033,1,28,female
93,11,172,nw,NW,vlump,0.0,0.573469387755102,263.1766315999557,264.0679511000053,m,0.8913195000495762,1,28,female
94,11,92,rw,HF,moeder,4.4554,0.4240362811791383,265.60906699998304,266.29880419996334,z,0.6897371999802999,1,28,female
95,11,58,rw,HF,heren,3.8659,0.4917006802721088,267.8416198999621,269.09643209999194,m,1.2548122000298465,0,28,female
96,11,108,nw,NW,geslonden,0.0,0.7017006802721089,270.6406500999583,272.0552820999874,m,1.414632000029087,1,28,female
97,11,175,nw,NW,nergen,0.0,0.5445804988662132,273.6061830999679,274.4775946000009,z,0.8714115000329912,0,28,female
98,11,167,nw,NW,pectars,0.0,0.6901814058956917,276.02218259999063,277.27213389996905,m,1.24995129997842,1,28,female
99,11,23,rw,LF,strotten,0.6021,0.5194104308390023,278.82147039996926,280.2181686999975,m,1.3966983000282198,0,28,female
100,11,98,rw,HF,had,4.9643,0.4442176870748299,281.77077399997506,282.65666609996697,z,0.8858920999919064,1,28,female
101,11,36,rw,LF,metrum,0.7782,0.5541950113378685,284.202770999982,285.33795600000303,m,1.1351850000210106,0,28,female
102,11,188,nw,NW,klaam,0.0,0.4651700680272109,286.88518359995214,288.4565975999576,z,1.5714140000054613,0,28,female
103,11,9,rw,LF,reigers,0.301,0.7401587301587301,290.00082309998106,291.03335280000465,z,1.0325297000235878,1,28,female
104,11,135,nw,NW,vlorken,0.0,0.5808390022675737,292.5833156000008,293.96632969996426,m,1.383014099963475,1,28,female
105,11,39,rw,LF,sjalot,0.7782,0.5982312925170068,295.51557669998147,296.9393716999912,z,1.4237950000097044,1,28,female
106,11,34,rw,LF,gonsde,0.7782,0.6049886621315193,298.4817126999842,299.8902203000034,z,1.4085076000192205,1,28,female
107,11,156,nw,NW,loedsels,0.0,0.7686848072562358,301.43034500000067,302.768074099964,m,1.337729099963326,1,28,female
108,11,165,nw,NW,tombel,0.0,0.4472108843537415,304.31262459995924,305.3649764999864,z,1.0523519000271335,0,28,female
109,11,20,rw,LF,schoffels,0.6021,0.7928571428571428,306.9117694000015,308.8376378999674,z,1.9258684999658728,1,28,female
110,11,142,nw,NW,gardien,0.0,0.5500680272108843,310.3777343999827,311.3922161999508,z,1.0144817999680529,0,28,female
111,11,123,nw,NW,kiemeten,0.0,0.6588888888888889,312.9434493999579,314.0912752999575,m,1.1478258999995887,1,28,female
112,11,111,nw,NW,kormel,0.0,0.4885487528344671,315.64216609997675,316.6999426999828,m,1.0577766000060365,1,28,female
113,11,144,nw,NW,ant,0.0,0.4819501133786848,318.24125159997493,319.41315320000285,z,1.1719016000279223,0,28,female
114,11,100,rw,HF,kom,5.0578,0.2878458049886621,320.9571514999843,321.86850270000286,z,0.9113512000185438,1,28,female
115,11,194,nw,NW,pruit,0.0,0.6024716553287982,323.40619809995405,324.5406412999728,z,1.1344432000187226,0,28,female
116,11,56,rw,HF,hard,3.8435,0.4832879818594104,326.08853989996715,326.9701214999659,z,0.8815815999987535,1,28,female
117,11,127,nw,NW,sluinen,0.0,0.6306575963718821,328.5210804999806,329.62620729999617,m,1.1051268000155687,1,28,female
118,11,7,rw,LF,rafel,0.301,0.574421768707483,331.17033519997494,332.31834369996795,m,1.1480084999930114,0,28,female
119,11,125,nw,NW,kabrieken,0.0,0.5446258503401361,333.86933709995355,335.2442939999746,z,1.3749569000210613,0,28,female
120,11,55,rw,HF,recht,3.8432,0.5463718820861678,336.78502129996195,337.72992889996385,m,0.9449076000018976,0,28,female
121,11,117,nw,NW,groeken,0.0,0.4692290249433106,339.26756379997823,341.1069534999551,z,1.8393896999768915,0,28,female
122,11,174,nw,NW,bluurde,0.0,0.4874149659863945,342.64969989995006,343.7538714999682,m,1.1041716000181625,1,28,female
123,11,24,rw,LF,wrongel,0.6021,0.5386848072562358,345.2998228999786,346.2757152999984,m,0.9758924000198022,0,28,female
124,11,30,rw,LF,oker,0.699,0.3913151927437642,347.814602999948,348.80446979997214,z,0.9898668000241742,1,28,female
125,11,67,rw,HF,plaats,3.97,0.6054195011337868,350.34720049996395,351.5246268999763,z,1.177426400012337,1,28,female
126,11,160,nw,NW,jaat,0.0,0.6258956916099774,353.0629395999713,354.30901839997387,m,1.2460788000025786,1,28,female
127,11,173,nw,NW,klaap,0.0,0.5418140589569161,355.8457123999833,356.76963870000327,m,0.9239263000199572,1,28,female
128,11,147,nw,NW,kuukt,0.0,0.4436734693877551,358.31107759999577,359.3616440999904,m,1.050566499994602,1,28,female
129,11,198,nw,NW,snarpen,0.0,0.6049886621315193,360.9101932999911,362.1482017999515,m,1.238008499960415,1,28,female
130,11,70,rw,HF,juist,4.0152,0.5870521541950113,363.6927015999681,364.4753453999874,z,0.7826438000192866,1,28,female
131,11,182,nw,NW,hormen,0.0,0.3752380952380952,366.02532319998136,367.1022266999935,m,1.076903500012122,1,28,female
132,11,162,nw,NW,gebeikt,0.0,0.8473469387755102,368.64097670000046,369.6229115999886,z,0.9819348999881186,0,28,female
133,11,184,nw,NW,rieve,0.0,0.4558049886621315,371.173611999955,372.9617611999856,m,1.7881492000306023,1,28,female
134,11,16,rw,LF,snert,0.4771,0.6224489795918368,374.5054039999959,376.525472099951,z,2.020068099955097,1,28,female
135,11,185,nw,NW,drintels,0.0,0.7725396825396825,378.0712535000057,379.901790199976,m,1.8305366999702528,1,28,female
136,11,114,nw,NW,gesmalpt,0.0,0.8913605442176871,381.4538115999894,382.75527889997466,m,1.3014672999852337,1,28,female
137,11,59,rw,HF,redden,3.8783,0.3632426303854875,384.302731499949,385.2207563999691,z,0.9180249000201002,1,28,female
138,11,151,nw,NW,plirken,0.0,0.5466893424036281,386.7682089000009,387.7363497999613,m,0.9681408999604172,1,28,female
139,11,134,nw,NW,vrijk,0.0,0.6648299319727892,389.2841075999895,391.4715503999614,m,2.1874427999719046,1,28,female
140,11,115,nw,NW,liek,0.0,0.4517687074829932,393.0161282999906,394.9692303999909,z,1.953102100000251,0,28,female
141,11,200,nw,NW,fankel,0.0,0.5785260770975057,396.5150684999535,397.6363166999654,m,1.1212482000119053,1,28,female
142,11,15,rw,LF,karpers,0.4771,0.6831292517006803,399.1805580999935,401.0794220999815,z,1.8988639999879524,1,28,female
143,11,168,nw,NW,stiraal,0.0,0.770045351473923,402.62950889999047,404.5179594999645,m,1.888450599974021,1,28,female
144,11,77,rw,HF,hen,4.158,0.3445124716553288,406.0617218999541,407.09695959999226,z,1.035237700038124,1,28,female
145,11,31,rw,LF,porde,0.699,0.3671201814058957,408.6441863999935,410.1187310999958,z,1.4745447000022978,1,28,female
146,11,62,rw,HF,gaf,3.923,0.5007256235827664,411.659775899956,412.7144306999981,z,1.0546548000420444,1,28,female
147,11,44,rw,LF,stram,0.8451,0.5876190476190476,414.2590416999883,415.4408042999567,z,1.1817625999683514,1,28,female
148,11,138,nw,NW,glaf,0.0,0.5436281179138323,416.99138939997647,418.4312425999669,m,1.4398531999904662,1,28,female
149,11,140,nw,NW,murselein,0.0,0.7366666666666667,419.97429260000354,421.59227999998257,z,1.6179873999790289,0,28,female
150,11,91,rw,HF,hele,4.4246,0.4885714285714285,423.1393102000002,424.2460419999552,z,1.106731799955014,1,28,female
151,11,60,rw,HF,vallen,3.8985,0.3511791383219955,425.7884655999951,426.64868889999343,z,0.8602232999983244,1,28,female
152,11,25,rw,LF,ambten,0.699,0.3910430839002267,428.1876113999752,429.9719299999997,z,1.7843186000245623,1,28,female
153,11,13,rw,LF,gevels,0.4771,0.8220181405895691,431.51990259997547,432.6001342999516,z,1.0802316999761388,1,28,female
154,11,12,rw,LF,barse,0.4771,0.5087755102040816,434.1522433999926,435.3277924999711,z,1.1755490999785252,1,28,female
155,11,124,nw,NW,vebras,0.0,0.8917233560090703,436.8678492999752,438.23414049996063,m,1.366291199985426,1,28,female
156,11,99,rw,HF,bij,5.0328,0.3325170068027211,439.7836577999988,440.78932779998286,z,1.005669999984093,1,28,female
157,11,75,rw,HF,vroeg,4.1163,0.5487074829931973,442.33295319997706,443.5528489999706,z,1.2198957999935374,1,28,female
158,11,14,rw,LF,juffen,0.4771,0.4445124716553288,445.0985754999565,446.2392201999901,z,1.1406447000335902,1,28,female
159,11,69,rw,HF,sta,4.0123,0.4588888888888889,447.7807772999513,448.8021265999996,z,1.021349300048314,1,28,female
160,11,90,rw,HF,wist,4.4149,0.5760997732426304,450.3468865999602,451.3820943000028,z,1.0352077000425195,1,28,female
161,11,154,nw,NW,gefaapt,0.0,0.8487528344671201,452.92968399997335,454.2298707999871,m,1.300186800013762,1,28,female
162,11,83,rw,HF,vraag,4.281,0.615827664399093,455.7782013999531,456.7467250999762,z,0.96852370002307,1,28,female
163,11,29,rw,LF,lanen,0.699,0.5240136054421769,458.2941785999574,459.3640178999631,m,1.0698393000056967,0,28,female
164,11,33,rw,LF,woei,0.699,0.3439455782312925,460.909696799994,461.885232599976,m,0.9755357999820262,0,28,female
165,11,199,nw,NW,spodiel,0.0,0.7211791383219954,463.4256851999671,464.6257678999682,m,1.200082700001076,1,28,female
166,11,112,nw,NW,breent,0.0,0.6899546485260771,466.1749343999545,467.256154499948,m,1.0812200999935158,1,28,female
167,11,74,rw,HF,help,4.0879,0.4439455782312925,468.8072732999572,469.5663231999497,z,0.759049899992533,1,28,female
168,11,181,nw,NW,herken,0.0,0.5039455782312925,471.1064660999691,471.82439069997054,z,0.7179246000014246,0,28,female
169,11,61,rw,HF,los,3.9075,0.5018140589569161,473.37219109997386,474.0966084999964,z,0.724417400022503,1,28,female
170,11,141,nw,NW,kimensie,0.0,0.666984126984127,475.63872759998776,476.900286899996,z,1.26155930000823,0,28,female
171,11,85,rw,HF,zag,4.3048,0.4990476190476191,478.4373473000014,479.6220057999599,z,1.1846584999584593,1,28,female
172,11,120,nw,NW,verke,0.0,0.5179818594104308,481.1697720999946,482.8893220999744,m,1.7195499999797903,1,28,female
173,11,3,rw,LF,imams,0.301,0.653968253968254,484.4354392999667,485.3539152999874,z,0.918476000020746,1,28,female
174,11,153,nw,NW,entel,0.0,0.5228344671201814,486.90121499996167,488.0223413999775,m,1.1211264000157826,1,28,female
175,11,105,nw,NW,jugen,0.0,0.5052607709750567,489.5675058999914,490.6798775999923,m,1.1123717000009492,1,28,female
176,11,161,nw,NW,gietsen,0.0,0.515827664399093,492.2160994999576,493.30542210000567,m,1.0893226000480354,1,28,female
177,11,87,rw,HF,ging,4.3434,0.396734693877551,494.848804499954,495.8173735999735,m,0.968569100019522,0,28,female
178,11,196,nw,NW,rokan,0.0,0.6312244897959184,497.364431999973,498.3305862999987,z,0.9661543000256644,0,28,female
179,11,52,rw,HF,hield,3.8191,0.5931292517006803,499.8801602000021,501.0621023999993,z,1.1819421999971382,1,28,female
180,11,48,rw,LF,balkons,0.9542,0.7699773242630386,502.6128285999876,503.77886409999337,z,1.166035500005819,1,28,female
181,11,21,rw,LF,schuiten,0.6021,0.6056009070294784,505.3280305999797,507.0416835999931,z,1.7136530000134371,1,28,female
182,11,164,nw,NW,snoen,0.0,0.490702947845805,508.594129199977,509.5438344999566,m,0.9497052999795416,1,28,female
183,11,88,rw,HF,werd,4.3552,0.4824263038548753,511.0933056999929,512.0366324999486,m,0.9433267999556848,0,28,female
184,11,8,rw,LF,ratels,0.301,0.8842857142857142,513.5757326000021,515.2648649999755,m,1.6891323999734595,0,28,female
185,11,163,nw,NW,plond,0.0,0.5671655328798186,516.8077941999654,519.577481299988,m,2.7696871000225656,1,28,female
186,11,150,nw,NW,knaarde,0.0,0.5770975056689343,521.1230188999907,522.4072003999609,z,1.2841814999701455,0,28,female
187,11,65,rw,HF,zoek,3.9398,0.4944671201814059,523.9557306999923,524.972109299968,z,1.0163785999757238,1,28,female
188,11,10,rw,LF,sikkels,0.301,0.7240136054421769,526.5211903000018,527.8831718000001,m,1.3619814999983646,0,28,female
189,11,63,rw,HF,begin,3.9267,0.4794784580498866,529.4202073999913,530.2544517999631,z,0.8342443999717943,1,28,female
190,11,132,nw,NW,fradingo,0.0,0.7437868480725623,531.8022973999614,534.3111284999759,m,2.508831100014504,1,28,female
191,11,187,nw,NW,gevupt,0.0,0.6875963718820862,535.8511874999967,537.1833234999795,m,1.332135999982711,1,28,female
192,11,49,rw,LF,bonkte,0.9542,0.4835600907029478,538.7337977999705,539.7272446999559,m,0.9934468999854288,0,28,female
193,11,71,rw,HF,ogen,4.0572,0.4824036281179138,541.2663213000051,542.0393735999824,z,0.7730522999772802,1,28,female
194,11,110,nw,NW,women,0.0,0.4578684807256236,543.5820705999504,544.6807237999747,m,1.0986532000242732,1,28,female
195,11,143,nw,NW,rakot,0.0,0.6866439909297052,546.2311575000058,547.3049259999534,m,1.0737684999476187,1,28,female
196,11,35,rw,LF,margriet,0.7782,0.6709297052154195,548.8470018999651,549.7274940999923,z,0.88049220002722,1,28,female
197,11,66,rw,HF,wakker,3.9448,0.4293424036281179,551.2792856000015,552.0801899999497,z,0.8009043999481946,1,28,female
198,11,93,rw,HF,dacht,4.5313,0.4514512471655328,553.628407399985,554.5375307999784,z,0.9091233999934047,1,28,female
199,11,26,rw,LF,beitels,0.699,0.7305895691609977,556.0777414999902,557.4237857999979,m,1.346044300007634,0,28,female
0,12,92,rw,HF,moeder,4.4554,0.4240362811791383,6.796507400053088,7.701115600008052,z,0.9046081999549642,1,32,male
1,12,30,rw,LF,oker,0.699,0.3913151927437642,9.245581299997866,10.180511000042316,z,0.9349297000444494,1,32,male
2,12,23,rw,LF,strotten,0.6021,0.5194104308390023,11.728150300041309,12.85361610003747,m,1.1254657999961637,0,32,male
3,12,183,nw,NW,zuun,0.0,0.4292517006802721,14.393875600013416,15.43433440005174,z,1.0404588000383228,0,32,male
4,12,110,nw,NW,women,0.0,0.4578684807256236,16.976426900015213,18.22895190003328,m,1.2525250000180677,1,32,male
5,12,2,rw,LF,hese,0.301,0.5392290249433107,19.77613630000269,21.065571400045883,m,1.2894351000431925,0,32,male
6,12,19,rw,LF,etui,0.6021,0.4205895691609977,22.607511700014584,23.398645400011446,z,0.7911336999968626,1,32,male
7,12,116,nw,NW,plenk,0.0,0.4568707482993197,24.940277500019874,25.793885799997952,m,0.8536082999780774,1,32,male
8,12,197,nw,NW,zerder,0.0,0.5083673469387755,27.339274700032547,28.459025800053496,m,1.1197511000209488,1,32,male
9,12,76,rw,HF,wachten,4.1516,0.4697052154195011,30.00558130000718,30.819448000052944,z,0.8138667000457644,1,32,male
10,12,67,rw,HF,plaats,3.97,0.6054195011337868,32.37093340000138,33.4793689000071,z,1.1084355000057258,1,32,male
11,12,57,rw,HF,reden,3.8548,0.4158049886621315,35.020093800034374,35.75014550000196,z,0.7300516999675892,1,32,male
12,12,120,nw,NW,verke,0.0,0.5179818594104308,37.28646040003514,38.265838400053326,z,0.9793780000181868,0,32,male
13,12,87,rw,HF,ging,4.3434,0.396734693877551,39.80229580000741,40.91618170001311,z,1.1138859000056982,1,32,male
14,12,74,rw,HF,help,4.0879,0.4439455782312925,42.467565099999774,43.30972990003647,z,0.8421648000366986,1,32,male
15,12,130,nw,NW,bralat,0.0,0.6841950113378685,44.85040080000181,45.85157890000846,m,1.0011781000066549,1,32,male
16,12,73,rw,HF,gemaakt,4.0844,0.8008390022675737,47.399276600044686,48.286079800047446,z,0.8868032000027597,1,32,male
17,12,136,nw,NW,kumus,0.0,0.5232653061224489,49.83181830000831,50.8410546000232,z,1.0092363000148907,0,32,male
18,12,99,rw,HF,bij,5.0328,0.3325170068027211,52.38108360004844,53.1780886000488,z,0.7970050000003539,1,32,male
19,12,161,nw,NW,gietsen,0.0,0.515827664399093,54.73036000004504,56.060717400047,m,1.330357400001958,1,32,male
20,12,166,nw,NW,mijk,0.0,0.5443537414965987,57.61294150003232,59.3025732000242,m,1.689631699991878,1,32,male
21,12,46,rw,LF,lijsters,0.9031,0.7591836734693878,60.84479260002263,61.97143440000946,z,1.126641799986828,1,32,male
22,12,34,rw,LF,gonsde,0.7782,0.6049886621315193,63.51054490002571,64.50018440000713,z,0.989639499981422,1,32,male
23,12,128,nw,NW,kandola,0.0,0.5002040816326531,66.04303250001976,67.06578390003415,z,1.0227514000143856,0,32,male
24,12,108,nw,NW,geslonden,0.0,0.7017006802721089,68.60927210003138,70.06005060003372,m,1.4507785000023432,1,32,male
25,12,88,rw,HF,werd,4.3552,0.4824263038548753,71.60777980001876,72.87688670004718,m,1.2691069000284187,0,32,male
26,12,103,nw,NW,brum,0.0,0.3432879818594104,74.42408600001363,75.4388220999972,m,1.0147360999835655,1,32,male
27,12,24,rw,LF,wrongel,0.6021,0.5386848072562358,76.98951430001762,78.07594920002157,m,1.086434900003951,0,32,male
28,12,96,rw,HF,zit,4.666,0.4542176870748299,79.6217574000475,81.14333920000354,z,1.5215817999560386,1,32,male
29,12,173,nw,NW,klaap,0.0,0.5418140589569161,82.68746909999754,84.35128860000987,m,1.6638195000123233,1,32,male
30,12,100,rw,HF,kom,5.0578,0.2878458049886621,85.90295420004986,86.81379690003814,z,0.9108426999882796,1,32,male
31,12,80,rw,HF,eigen,4.1922,0.4820181405895691,88.35211650002748,89.21915950003313,z,0.8670430000056513,1,32,male
32,12,17,rw,LF,clusters,0.6021,0.7289342403628117,90.76798160001636,91.74241980002262,z,0.9744382000062616,1,32,male
33,12,72,rw,HF,lekker,4.082,0.3890249433106576,93.28373020002618,93.96212760003982,z,0.6783974000136368,1,32,male
34,12,64,rw,HF,bezig,3.934,0.6209523809523809,95.49970159999792,96.35335310001392,z,0.8536515000159852,1,32,male
35,12,165,nw,NW,tombel,0.0,0.4472108843537415,97.89926710003056,98.58721730002436,z,0.6879501999937929,0,32,male
36,12,36,rw,LF,metrum,0.7782,0.5541950113378685,100.13137950003149,101.0548764000414,z,0.9234969000099228,1,32,male
37,12,190,nw,NW,ploe,0.0,0.233922902494331,102.5976599000278,103.36213860003043,m,0.7644787000026554,1,32,male
38,12,81,rw,HF,krijg,4.214,0.5826757369614513,104.91366450005444,105.81597120000517,m,0.9023066999507136,0,32,male
39,12,185,nw,NW,drintels,0.0,0.7725396825396825,107.36295830004384,108.48732650000602,m,1.1243681999621913,1,32,male
40,12,177,nw,NW,rons,0.0,0.5964625850340136,110.0281765999971,111.4897255000542,m,1.461548900057096,1,32,male
41,12,107,nw,NW,gals,0.0,0.6466213151927438,113.02696710004238,114.93135510000866,m,1.904387999966275,1,32,male
42,12,8,rw,LF,ratels,0.301,0.8842857142857142,116.47653189999984,117.57069600000978,z,1.094164100009948,1,32,male
43,12,118,nw,NW,prookt,0.0,0.6648299319727892,119.10849569999846,120.11577740003122,m,1.0072817000327632,1,32,male
44,12,189,nw,NW,trorg,0.0,0.5636507936507936,121.65759200003232,122.56249890004985,m,0.9049069000175224,1,32,male
45,12,82,rw,HF,morgen,4.2678,0.4886621315192744,124.10670500004198,124.87275999999838,z,0.7660549999563955,1,32,male
46,12,135,nw,NW,vlorken,0.0,0.5808390022675737,126.4226196000236,127.63265070004854,m,1.2100311000249349,1,32,male
47,12,47,rw,LF,venkel,0.9031,0.5343537414965986,129.17165240005124,130.02615640003933,z,0.8545039999880828,1,32,male
48,12,147,nw,NW,kuukt,0.0,0.4436734693877551,131.57095150003445,132.35949820000678,m,0.7885466999723576,1,32,male
49,12,28,rw,LF,klavier,0.699,0.6192970521541951,133.90353920002235,134.74378610000713,z,0.840246899984777,1,32,male
50,12,44,rw,LF,stram,0.8451,0.5876190476190476,136.28649950004183,137.37514330004342,z,1.0886438000015914,1,32,male
51,12,12,rw,LF,barse,0.4771,0.5087755102040816,138.91853750002338,140.02962430001935,m,1.1110867999959737,0,32,male
52,12,191,nw,NW,darboen,0.0,0.6270748299319728,141.5679087000317,142.5939676000271,m,1.0260588999954052,1,32,male
53,12,111,nw,NW,kormel,0.0,0.4885487528344671,144.13339090003865,145.3251269000466,m,1.1917360000079498,1,32,male
54,12,195,nw,NW,pirrel,0.0,0.361156462585034,146.86555100005353,147.83820510003716,m,0.9726540999836288,1,32,male
55,12,168,nw,NW,stiraal,0.0,0.770045351473923,149.3817781000398,150.63431270001456,z,1.2525345999747517,0,32,male
56,12,56,rw,HF,hard,3.8435,0.4832879818594104,152.18115540000144,153.13543020002544,z,0.9542748000239952,1,32,male
57,12,62,rw,HF,gaf,3.923,0.5007256235827664,154.67972539999755,155.63934670004528,z,0.9596213000477292,1,32,male
58,12,68,rw,HF,soort,3.9872,0.6407256235827664,157.1790575000341,158.15709650004283,z,0.9780390000087208,1,32,male
59,12,155,nw,NW,pals,0.0,0.4868707482993197,159.69441039999947,160.48154580005212,z,0.787135400052648,0,32,male
60,12,194,nw,NW,pruit,0.0,0.6024716553287982,162.02725310000824,162.85305530001642,m,0.8258022000081837,1,32,male
61,12,98,rw,HF,had,4.9643,0.4442176870748299,164.3931300000404,165.15530840004794,z,0.7621784000075422,1,32,male
62,12,164,nw,NW,snoen,0.0,0.490702947845805,166.69248450000305,167.59416540001985,m,0.9016809000167996,1,32,male
63,12,41,rw,LF,zolders,0.7782,0.7216780045351474,169.14162250002846,169.95665670000017,z,0.8150341999717057,1,32,male
64,12,160,nw,NW,jaat,0.0,0.6258956916099774,171.50778260000516,172.58902290003607,m,1.0812403000309132,1,32,male
65,12,33,rw,LF,woei,0.699,0.3439455782312925,174.1397854000097,175.09498330001952,m,0.9551979000098072,0,32,male
66,12,25,rw,LF,ambten,0.699,0.3910430839002267,176.63917480001692,177.91498690005392,z,1.275812100037001,1,32,male
67,12,14,rw,LF,juffen,0.4771,0.4445124716553288,179.45492790004937,180.28761920001125,z,0.8326912999618798,1,32,male
68,12,32,rw,LF,suste,0.699,0.6104761904761905,181.8371714000241,182.71737320005195,z,0.8802018000278622,1,32,male
69,12,137,nw,NW,smaan,0.0,0.5507256235827664,184.26989360002332,185.38791140000103,m,1.1180177999776788,1,32,male
70,12,143,nw,NW,rakot,0.0,0.6866439909297052,186.9356944000465,188.86393110000063,z,1.928236699954141,0,32,male
71,12,102,nw,NW,labber,0.0,0.4050793650793651,190.4014364000177,191.3015590000432,m,0.9001226000254974,1,32,male
72,12,26,rw,LF,beitels,0.699,0.7305895691609977,192.85022890003165,193.96276580000995,z,1.112536899978295,1,32,male
73,12,52,rw,HF,hield,3.8191,0.5931292517006803,195.49940349999812,196.5987248000456,z,1.0993213000474498,1,32,male
74,12,162,nw,NW,gebeikt,0.0,0.8473469387755102,198.14857950003352,199.91901700000744,m,1.770437499973923,1,32,male
75,12,192,nw,NW,megen,0.0,0.484172335600907,201.4644546000054,203.33064800000284,m,1.866193399997428,1,32,male
76,12,139,nw,NW,stodeum,0.0,0.6441043083900226,204.87954950000855,206.03623650001828,m,1.156687000009697,1,32,male
77,12,154,nw,NW,gefaapt,0.0,0.8487528344671201,207.5789170000353,209.11095250002109,m,1.5320354999857957,1,32,male
78,12,150,nw,NW,knaarde,0.0,0.5770975056689343,210.66113670001505,211.97108460002343,z,1.3099479000084102,0,32,male
79,12,89,rw,HF,geweest,4.3568,0.7779138321995465,213.5098629000131,214.7019672000315,z,1.1921043000184,1,32,male
80,12,113,nw,NW,vroel,0.0,0.5116326530612245,216.2426600000472,217.22404010000173,m,0.9813800999545492,1,32,male
81,12,77,rw,HF,hen,4.158,0.3445124716553288,218.7749092000304,219.586323000025,z,0.8114137999946252,1,32,male
82,12,79,rw,HF,uur,4.1832,0.3304988662131519,221.1241162000224,221.89664950000588,z,0.7725332999834791,1,32,male
83,12,187,nw,NW,gevupt,0.0,0.6875963718820862,223.4399820000399,224.80483510001795,m,1.3648530999780633,1,32,male
84,12,105,nw,NW,jugen,0.0,0.5052607709750567,226.35571750003143,227.8475248000468,z,1.4918073000153529,0,32,male
85,12,35,rw,LF,margriet,0.7782,0.6709297052154195,229.38798660004977,230.27716200001305,z,0.8891753999632783,1,32,male
86,12,9,rw,LF,reigers,0.301,0.7401587301587301,231.82051410002168,232.8161100000143,z,0.9955958999926224,1,32,male
87,12,140,nw,NW,murselein,0.0,0.7366666666666667,234.3529653000296,235.36311730003217,z,1.010152000002563,0,32,male
88,12,198,nw,NW,snarpen,0.0,0.6049886621315193,236.90210220002336,238.01443790004123,m,1.1123357000178655,1,32,male
89,12,117,nw,NW,groeken,0.0,0.4692290249433106,239.55126390000805,241.0898833000101,z,1.5386194000020623,0,32,male
90,12,200,nw,NW,fankel,0.0,0.5785260770975057,242.6335871000192,243.82934039999964,m,1.1957532999804243,1,32,male
91,12,21,rw,LF,schuiten,0.6021,0.6056009070294784,245.36596020002617,246.6851562000229,z,1.3191959999967366,1,32,male
92,12,6,rw,LF,puien,0.301,0.3691156462585034,248.2318211000529,249.0905441000359,z,0.8587229999830015,1,32,male
93,12,157,nw,NW,udel,0.0,0.3563038548752834,250.6312871000264,251.3995668000425,m,0.7682797000161372,1,32,male
94,12,126,nw,NW,zelijk,0.0,0.7470521541950114,252.9465298000141,253.896179900039,z,0.9496501000248828,0,32,male
95,12,119,nw,NW,doppel,0.0,0.3931292517006802,255.44589710002765,256.3609080000315,z,0.9150109000038356,0,32,male
96,12,148,nw,NW,kadders,0.0,0.5390929705215419,257.91154910001205,258.8606097000302,z,0.9490606000181288,0,32,male
97,12,60,rw,HF,vallen,3.8985,0.3511791383219955,260.4109188000439,261.34435940004187,z,0.9334405999979936,1,32,male
98,12,13,rw,LF,gevels,0.4771,0.8220181405895691,262.8934047000366,264.02760760003,z,1.1342028999933973,1,32,male
99,12,141,nw,NW,kimensie,0.0,0.666984126984127,265.575596700015,266.43916760000866,m,0.8635708999936469,1,32,male
100,12,48,rw,LF,balkons,0.9542,0.7699773242630386,267.97501000005286,269.0060357000329,z,1.0310256999800913,1,32,male
101,12,93,rw,HF,dacht,4.5313,0.4514512471655328,270.5573860000004,271.4223402000498,z,0.8649542000493966,1,32,male
102,12,172,nw,NW,vlump,0.0,0.573469387755102,272.973325900035,273.8399126000004,m,0.8665866999654099,1,32,male
103,12,145,nw,NW,bezans,0.0,0.7936507936507936,275.3889299000148,276.3696589000174,m,0.9807290000026114,1,32,male
104,12,70,rw,HF,juist,4.0152,0.5870521541950113,277.92151549999835,278.66157080000266,z,0.7400553000043146,1,32,male
105,12,179,nw,NW,monen,0.0,0.4788888888888888,280.2040150000248,281.24431050004205,m,1.040295500017237,1,32,male
106,12,131,nw,NW,rogenten,0.0,0.6747845804988662,282.78630279999925,283.8181803000043,m,1.0318775000050664,1,32,male
107,12,109,nw,NW,giep,0.0,0.4608390022675737,285.3695432000095,286.2445508000092,m,0.8750075999996625,1,32,male
108,12,174,nw,NW,bluurde,0.0,0.4874149659863945,287.78480790002504,288.7713968000025,m,0.9865888999775052,1,32,male
109,12,84,rw,HF,auto,4.3017,0.4550793650793651,290.3174542000052,291.10815710003953,z,0.7907029000343755,1,32,male
110,12,138,nw,NW,glaf,0.0,0.5436281179138323,292.65021610003896,294.0901002000319,m,1.4398840999929234,1,32,male
111,12,94,rw,HF,gedaan,4.5868,0.6245578231292517,295.63283150002826,296.90582820004784,z,1.2729967000195757,1,32,male
112,12,29,rw,LF,lanen,0.699,0.5240136054421769,298.4478688000236,299.6411663000472,m,1.1932975000236183,0,32,male
113,12,178,nw,NW,gimmel,0.0,0.4918140589569161,301.1806471000309,303.04777070001,m,1.8671235999790952,1,32,male
114,12,39,rw,LF,sjalot,0.7782,0.5982312925170068,304.59624790004455,305.9888795000152,z,1.3926315999706276,1,32,male
115,12,146,nw,NW,gewunnen,0.0,0.5544671201814059,307.5282671000459,308.6170210000128,m,1.0887538999668325,1,32,male
116,12,83,rw,HF,vraag,4.281,0.615827664399093,310.16112380003324,311.01368440000806,z,0.8525605999748223,1,32,male
117,12,27,rw,LF,flans,0.699,0.6479591836734694,312.56024459999753,313.73424890002934,m,1.174004300031811,0,32,male
118,12,184,nw,NW,rieve,0.0,0.4558049886621315,315.2758298999979,316.2471836000332,m,0.9713537000352516,1,32,male
119,12,158,nw,NW,rufel,0.0,0.5402267573696146,317.7918986000004,319.0934771000175,z,1.301578500017058,0,32,male
120,12,90,rw,HF,wist,4.4149,0.5760997732426304,320.64163910003845,321.5776927000261,z,0.9360535999876448,1,32,male
121,12,49,rw,LF,bonkte,0.9542,0.4835600907029478,323.1231103000464,324.16501350002363,z,1.0419031999772417,1,32,male
122,12,175,nw,NW,nergen,0.0,0.5445804988662132,325.7056703999988,327.45767790003447,m,1.7520075000356885,1,32,male
123,12,66,rw,HF,wakker,3.9448,0.4293424036281179,329.00450249999994,329.7642414000002,z,0.7597389000002295,1,32,male
124,12,43,rw,LF,stengels,0.8451,0.7586621315192744,331.30365330004133,332.2372259000549,z,0.9335726000135764,1,32,male
125,12,181,nw,NW,herken,0.0,0.5039455782312925,333.7862025000504,334.951113200048,z,1.164910699997563,0,32,male
126,12,11,rw,LF,stekken,0.301,0.4987074829931973,336.50228500005323,338.2005255999975,z,1.6982405999442562,1,32,male
127,12,20,rw,LF,schoffels,0.6021,0.7928571428571428,339.7507307000342,341.0336041999981,m,1.2828734999638982,0,32,male
128,12,170,nw,NW,moksen,0.0,0.514172335600907,342.58320500003174,343.5879651000141,m,1.0047600999823771,1,32,male
129,12,115,nw,NW,liek,0.0,0.4517687074829932,345.1323580000317,346.3670250000432,m,1.234667000011541,1,32,male
130,12,196,nw,NW,rokan,0.0,0.6312244897959184,347.91476870002225,349.24323240004014,m,1.3284637000178918,1,32,male
131,12,16,rw,LF,snert,0.4771,0.6224489795918368,350.7805331000127,351.71190809999825,z,0.9313749999855644,1,32,male
132,12,182,nw,NW,hormen,0.0,0.3752380952380952,353.2629586000112,354.12462630000664,m,0.8616676999954507,1,32,male
133,12,75,rw,HF,vroeg,4.1163,0.5487074829931973,355.66213770001195,356.46496680000564,z,0.8028290999936871,1,32,male
134,12,50,rw,LF,gisten,0.9542,0.5466213151927438,358.0128498999984,358.9006429000292,z,0.887793000030797,1,32,male
135,12,124,nw,NW,vebras,0.0,0.8917233560090703,360.4438888000441,361.7166729000164,m,1.2727840999723412,1,32,male
136,12,45,rw,LF,grief,0.9031,0.5177777777777778,363.2598910000525,364.3467100000125,m,1.0868189999600872,0,32,male
137,12,151,nw,NW,plirken,0.0,0.5466893424036281,365.892401900026,366.7342158000101,m,0.8418138999841176,1,32,male
138,12,104,nw,NW,goont,0.0,0.6195918367346939,368.274618800031,369.5007377000293,m,1.226118899998255,1,32,male
139,12,3,rw,LF,imams,0.301,0.653968253968254,371.04082660004497,371.8479424000252,z,0.8071157999802381,1,32,male
140,12,97,rw,HF,zeg,4.6872,0.488843537414966,373.3896823000396,374.3616929000127,z,0.972010599973146,1,32,male
141,12,10,rw,LF,sikkels,0.301,0.7240136054421769,375.905416900001,377.4502484000405,z,1.544831500039436,1,32,male
142,12,59,rw,HF,redden,3.8783,0.3632426303854875,378.9876967000309,380.0845198000316,z,1.09682310000062,1,32,male
143,12,152,nw,NW,grede,0.0,0.5429478458049887,381.6367275000084,382.7335989000276,z,1.096871400019154,0,32,male
144,12,171,nw,NW,glijp,0.0,0.5592063492063492,384.2856155000045,385.1911027000169,m,0.9054872000124304,1,32,male
145,12,85,rw,HF,zag,4.3048,0.4990476190476191,386.735239200003,387.8053701000172,z,1.070130900014192,1,32,male
146,12,54,rw,HF,baby,3.8221,0.4545578231292517,389.3507620000164,390.211933500017,z,0.861171500000637,1,32,male
147,12,42,rw,LF,lome,0.8451,0.4866893424036281,391.75010260002455,392.6886393000023,m,0.9385366999777034,0,32,male
148,12,193,nw,NW,nef,0.0,0.4258730158730158,394.2324933000491,395.13234820001526,z,0.899854899966158,0,32,male
149,12,78,rw,HF,open,4.1693,0.3699092970521542,396.6816471000202,397.7001971999998,z,1.0185500999796204,1,32,male
150,12,142,nw,NW,gardien,0.0,0.5500680272108843,399.2480190000497,400.1728032000247,z,0.9247841999749652,0,32,male
151,12,127,nw,NW,sluinen,0.0,0.6306575963718821,401.7131614000537,402.88743530004285,m,1.1742738999892026,1,32,male
152,12,153,nw,NW,entel,0.0,0.5228344671201814,404.4291621000157,405.5199010000215,m,1.0907389000058174,1,32,male
153,12,134,nw,NW,vrijk,0.0,0.6648299319727892,407.0615552000236,408.2896180000389,m,1.2280628000153229,1,32,male
154,12,38,rw,LF,sfinxen,0.7782,0.6166213151927438,409.8271814000327,410.8446135999984,z,1.0174321999656968,1,32,male
155,12,132,nw,NW,fradingo,0.0,0.7437868480725623,412.3930330000003,413.3605682000052,m,0.9675352000049317,1,32,male
156,12,144,nw,NW,ant,0.0,0.4819501133786848,414.9088448000257,416.2107949000201,m,1.3019500999944285,1,32,male
157,12,186,nw,NW,brad,0.0,0.4661451247165533,417.7577952000429,418.6547726000426,z,0.8969773999997415,0,32,male
158,12,176,nw,NW,kwarp,0.0,0.5111791383219955,420.2070408000145,421.65246860001935,m,1.4454278000048362,1,32,male
159,12,18,rw,LF,deun,0.6021,0.4665532879818594,423.1915800000425,424.6419804000179,z,1.4504003999754786,1,32,male
160,12,63,rw,HF,begin,3.9267,0.4794784580498866,426.1883347000112,426.9854308000067,m,0.7970960999955423,0,32,male
161,12,55,rw,HF,recht,3.8432,0.5463718820861678,428.5373433000059,429.5774616000126,z,1.040118300006725,1,32,male
162,12,37,rw,LF,rogge,0.7782,0.4180952380952381,431.1202432000428,432.2135433000512,m,1.0933001000084914,0,32,male
163,12,5,rw,LF,ponten,0.301,0.4158956916099773,433.7524840000551,435.116625100025,z,1.3641410999698564,1,32,male
164,12,121,nw,NW,nammer,0.0,0.3958503401360544,436.6688014000538,437.58713810000336,m,0.9183366999495776,1,32,male
165,12,61,rw,HF,los,3.9075,0.5018140589569161,439.1340947000426,440.02067550004,z,0.8865807999973185,1,32,male
166,12,122,nw,NW,bluit,0.0,0.7464399092970522,441.5665411000373,443.2627265000483,m,1.696185400011018,1,32,male
167,12,65,rw,HF,zoek,3.9398,0.4944671201814059,444.7986587000196,445.7284670000081,z,0.9298082999885082,1,32,male
168,12,133,nw,NW,gefruld,0.0,0.88281179138322,447.2646171000088,448.8059452000307,m,1.5413281000219283,1,32,male
169,12,188,nw,NW,klaam,0.0,0.4651700680272109,450.3472837000154,451.2205221000477,z,0.8732384000322782,0,32,male
170,12,58,rw,HF,heren,3.8659,0.4917006802721088,452.7629708000459,453.89817729999777,z,1.1352064999518916,1,32,male
171,12,91,rw,HF,hele,4.4246,0.4885714285714285,455.44520780001767,456.5244098000112,m,1.0792019999935292,0,32,male
172,12,1,rw,LF,buidels,0.301,0.7648752834467121,458.0611231000512,459.11470800003735,z,1.0535848999861628,1,32,male
173,12,163,nw,NW,plond,0.0,0.5671655328798186,460.6602140000323,461.7661160000134,m,1.1059019999811426,1,32,male
174,12,114,nw,NW,gesmalpt,0.0,0.8913605442176871,463.3092449000105,464.6322877000202,m,1.3230428000097163,1,32,male
175,12,69,rw,HF,sta,4.0123,0.4588888888888889,466.1753609000007,467.1762310000486,m,1.000870100047905,0,32,male
176,12,169,nw,NW,plin,0.0,0.3179818594104308,468.7239582000184,469.6037379000336,m,0.8797797000152059,1,32,male
177,12,156,nw,NW,loedsels,0.0,0.7686848072562358,471.1398931000149,472.3513223000336,m,1.211429200018756,1,32,male
178,12,123,nw,NW,kiemeten,0.0,0.6588888888888889,473.8889712000382,475.0175994000165,m,1.128628199978266,1,32,male
179,12,86,rw,HF,idee,4.3247,0.4575056689342404,476.5547134000226,477.3147246000008,z,0.7600111999781802,1,32,male
180,12,112,nw,NW,breent,0.0,0.6899546485260771,478.8539299000404,480.2367014000192,m,1.382771499978844,1,32,male
181,12,95,rw,HF,dood,4.6374,0.5565986394557824,481.7863364000223,482.7495359000168,z,0.9631994999945164,1,32,male
182,12,125,nw,NW,kabrieken,0.0,0.5446258503401361,484.285675799998,485.95247620000737,m,1.6668004000093788,1,32,male
183,12,4,rw,LF,polders,0.301,0.5961451247165533,487.5010197000229,488.2507019000477,z,0.7496822000248358,1,32,male
184,12,101,nw,NW,millag,0.0,0.5752380952380952,489.800214100047,490.6367716000532,m,0.8365575000061654,1,32,male
185,12,22,rw,LF,spurt,0.6021,0.6664625850340136,492.1827723000315,493.31196459999774,m,1.1291922999662347,0,32,male
186,12,40,rw,LF,topaas,0.7782,0.75421768707483,494.8484989000135,495.7513213000493,z,0.9028224000358024,1,32,male
187,12,31,rw,LF,porde,0.699,0.3671201814058957,497.2977774000028,498.5749817000469,z,1.2772043000441045,1,32,male
188,12,180,nw,NW,kijs,0.0,0.5234920634920635,500.11335230001714,500.9250858000014,m,0.8117334999842569,1,32,male
189,12,129,nw,NW,grantel,0.0,0.613718820861678,502.4625701000332,503.4890393000096,m,1.0264691999764182,1,32,male
190,12,199,nw,NW,spodiel,0.0,0.7211791383219954,505.02854720002506,506.4432579000131,m,1.4147106999880634,1,32,male
191,12,167,nw,NW,pectars,0.0,0.6901814058956917,507.9943278999999,509.59143580001546,m,1.597107900015544,1,32,male
192,12,51,rw,HF,plan,3.7972,0.3517687074829932,511.1431585000246,512.0993789000204,z,0.9562203999958,1,32,male
193,12,15,rw,LF,karpers,0.4771,0.6831292517006803,513.6422654000344,515.8642764000106,m,2.222010999976192,0,32,male
194,12,159,nw,NW,rastel,0.0,0.6509297052154195,517.4073162000277,518.9240378000541,m,1.516721600026358,1,32,male
195,12,71,rw,HF,ogen,4.0572,0.4824036281179138,520.4733692000154,521.4982358000125,z,1.02486659999704,1,32,male
196,12,149,nw,NW,leumen,0.0,0.4952834467120181,523.0395294000045,524.1396782000083,m,1.100148800003808,1,32,male
197,12,106,nw,NW,slont,0.0,0.6466439909297053,525.6881789000472,526.9253984000534,z,1.2372195000061763,0,32,male
198,12,7,rw,LF,rafel,0.301,0.574421768707483,528.4708973000525,529.4271690000314,m,0.95627169997897,0,32,male
199,12,53,rw,HF,boek,3.8196,0.4394104308390023,530.9697785000317,531.7773844000185,z,0.807605899986811,1,32,male
0,13,53,rw,HF,boek,3.8196,0.4394104308390023,16.926255200000014,17.93245520000346,z,1.006200000003446,1,28,female
1,13,101,nw,NW,millag,0.0,0.5752380952380952,19.475616200012155,20.690805300022475,m,1.2151891000103203,1,28,female
2,13,135,nw,NW,vlorken,0.0,0.5808390022675737,22.24111180001637,23.41507400001865,m,1.1739622000022791,1,28,female
3,13,169,nw,NW,plin,0.0,0.3179818594104308,24.9568446999765,25.94497880002018,m,0.9881341000436804,1,28,female
4,13,51,rw,HF,plan,3.7972,0.3517687074829932,27.48951350001153,28.41275880002649,m,0.923245300014969,0,28,female
5,13,54,rw,HF,baby,3.8221,0.4545578231292517,29.95518019999145,31.356898199999705,z,1.401718000008259,1,28,female
6,13,90,rw,HF,wist,4.4149,0.5760997732426304,32.90401800000109,33.93981830001576,z,1.035800300014671,1,28,female
7,13,88,rw,HF,werd,4.3552,0.4824263038548753,35.486605199985206,36.44864690001123,z,0.9620417000260204,1,28,female
8,13,130,nw,NW,bralat,0.0,0.6841950113378685,37.98582140001236,39.43182709999383,m,1.4460056999814697,1,28,female
9,13,67,rw,HF,plaats,3.97,0.6054195011337868,40.98469509999268,42.36595230002422,z,1.3812572000315413,1,28,female
10,13,149,nw,NW,leumen,0.0,0.4952834467120181,43.91674620000413,45.09435959998518,m,1.1776133999810554,1,28,female
11,13,20,rw,LF,schoffels,0.6021,0.7928571428571428,46.63337519997731,47.81480350001948,z,1.181428300042171,1,28,female
12,13,92,rw,HF,moeder,4.4554,0.4240362811791383,49.36527529999148,50.33369230001699,z,0.9684170000255108,1,28,female
13,13,71,rw,HF,ogen,4.0572,0.4824036281179138,51.881002600013744,52.76326570002129,z,0.8822631000075489,1,28,female
14,13,2,rw,LF,hese,0.301,0.5392290249433107,54.31366490002256,56.44472269999096,m,2.131057799968403,0,28,female
15,13,93,rw,HF,dacht,4.5313,0.4514512471655328,57.99560429999838,59.149224299995694,z,1.1536199999973178,1,28,female
16,13,49,rw,LF,bonkte,0.9542,0.4835600907029478,60.69469560001744,61.65718789998209,z,0.9624922999646516,1,28,female
17,13,183,nw,NW,zuun,0.0,0.4292517006802721,63.19387610000558,64.30569160002051,m,1.1118155000149272,1,28,female
18,13,58,rw,HF,heren,3.8659,0.4917006802721088,65.84346820000792,66.79458159999922,z,0.9511133999913,1,28,female
19,13,41,rw,LF,zolders,0.7782,0.7216780045351474,68.34213549998822,69.38147760002175,z,1.0393421000335366,1,28,female
20,13,81,rw,HF,krijg,4.214,0.5826757369614513,70.92487240000628,71.89733880001586,z,0.97246640000958,1,28,female
21,13,12,rw,LF,barse,0.4771,0.5087755102040816,73.44068469997728,74.76220599998487,m,1.3215213000075892,0,28,female
22,13,148,nw,NW,kadders,0.0,0.5390929705215419,76.30618730001152,77.26503279997269,m,0.9588454999611712,1,28,female
23,13,120,nw,NW,verke,0.0,0.5179818594104308,78.80672609998146,80.11487869999837,m,1.3081526000169106,1,28,female
24,13,136,nw,NW,kumus,0.0,0.5232653061224489,81.65421399998013,83.2147197999875,m,1.5605058000073768,1,28,female
25,13,39,rw,LF,sjalot,0.7782,0.5982312925170068,84.75390609999886,85.84679819998564,z,1.0928920999867842,1,28,female
26,13,1,rw,LF,buidels,0.301,0.7648752834467121,87.38574579998385,88.5871371999965,z,1.201391400012653,1,28,female
27,13,171,nw,NW,glijp,0.0,0.5592063492063492,90.13479929999448,91.76406959997256,m,1.6292702999780886,1,28,female
28,13,85,rw,HF,zag,4.3048,0.4990476190476191,93.30038829997648,94.53779099998064,z,1.237402700004168,1,28,female
29,13,29,rw,LF,lanen,0.699,0.5240136054421769,96.08287629997358,97.53916179999942,z,1.4562855000258423,1,28,female
30,13,179,nw,NW,monen,0.0,0.4788888888888888,99.08174749999309,100.49430690001464,m,1.4125594000215642,1,28,female
31,13,194,nw,NW,pruit,0.0,0.6024716553287982,102.03126020001946,103.31196319998708,m,1.280702999967616,1,28,female
32,13,77,rw,HF,hen,4.158,0.3445124716553288,104.86325529997704,105.7903867000132,z,0.92713140003616,1,28,female
33,13,167,nw,NW,pectars,0.0,0.6901814058956917,107.32899970002472,108.81471299997064,m,1.4857132999459282,1,28,female
34,13,175,nw,NW,nergen,0.0,0.5445804988662132,110.3613424000214,111.85704839997923,m,1.4957059999578632,1,28,female
35,13,79,rw,HF,uur,4.1832,0.3304988662131519,113.39384969999082,114.29757290001726,z,0.903723200026434,1,28,female
36,13,66,rw,HF,wakker,3.9448,0.4293424036281179,115.843010600016,116.8403709999984,z,0.9973603999824264,1,28,female
37,13,5,rw,LF,ponten,0.301,0.4158956916099773,118.39195879996988,119.8126635000226,m,1.4207047000527382,0,28,female
38,13,82,rw,HF,morgen,4.2678,0.4886621315192744,121.35768339998322,122.3083500000066,z,0.9506666000233964,1,28,female
39,13,61,rw,HF,los,3.9075,0.5018140589569161,123.85675650002668,124.75791949999984,z,0.9011629999731668,1,28,female
40,13,31,rw,LF,porde,0.699,0.3671201814058957,126.3059782999917,127.2033806000254,z,0.8974023000337183,1,28,female
41,13,99,rw,HF,bij,5.0328,0.3325170068027211,128.75527060002787,129.924855499994,z,1.1695848999661391,1,28,female
42,13,187,nw,NW,gevupt,0.0,0.6875963718820862,131.47165089996997,132.6635028999881,m,1.191852000018116,1,28,female
43,13,37,rw,LF,rogge,0.7782,0.4180952380952381,134.20355029997882,135.16027920000488,z,0.9567289000260644,1,28,female
44,13,112,nw,NW,breent,0.0,0.6899546485260771,136.7024672999978,138.15976509999018,m,1.457297799992375,1,28,female
45,13,7,rw,LF,rafel,0.301,0.574421768707483,139.70154320000438,141.0016322999727,z,1.300089099968318,1,28,female
46,13,60,rw,HF,vallen,3.8985,0.3511791383219955,142.5505145000061,143.52845589997014,z,0.9779413999640384,1,28,female
47,13,166,nw,NW,mijk,0.0,0.5443537414965987,145.06656990002375,146.51767759997165,m,1.4511076999478971,1,28,female
48,13,195,nw,NW,pirrel,0.0,0.361156462585034,148.06557709997287,149.09860520000802,m,1.033028100035153,1,28,female
49,13,30,rw,LF,oker,0.699,0.3913151927437642,150.64772539999103,151.86497659998713,z,1.2172511999960989,1,28,female
50,13,44,rw,LF,stram,0.8451,0.5876190476190476,153.41355220001424,155.7691432000138,z,2.355590999999549,1,28,female
51,13,162,nw,NW,gebeikt,0.0,0.8473469387755102,157.3121194000123,158.71323150000535,m,1.4011120999930426,1,28,female
52,13,73,rw,HF,gemaakt,4.0844,0.8008390022675737,160.26101539999945,161.32116330001736,z,1.0601479000179097,1,28,female
53,13,16,rw,LF,snert,0.4771,0.6224489795918368,162.8602565000183,163.90300990000833,z,1.0427533999900334,1,28,female
54,13,98,rw,HF,had,4.9643,0.4442176870748299,165.4427824000013,166.3365250999923,z,0.8937426999909803,1,28,female
55,13,115,nw,NW,liek,0.0,0.4517687074829932,167.87538749998205,169.51555860001827,m,1.6401711000362411,1,28,female
56,13,43,rw,LF,stengels,0.8451,0.7586621315192744,171.05738279997604,172.17788939998718,z,1.12050660001114,1,28,female
57,13,186,nw,NW,brad,0.0,0.4661451247165533,173.7234266999876,175.1101626000018,m,1.3867359000141732,1,28,female
58,13,21,rw,LF,schuiten,0.6021,0.6056009070294784,176.65563430002658,178.32022699998925,z,1.664592699962668,1,28,female
59,13,159,nw,NW,rastel,0.0,0.6509297052154195,179.87096420000307,181.58227249997435,m,1.7113082999712788,1,28,female
60,13,164,nw,NW,snoen,0.0,0.490702947845805,183.12010629998983,184.8091244000243,m,1.6890181000344455,1,28,female
61,13,34,rw,LF,gonsde,0.7782,0.6049886621315193,186.352239299973,188.14066360000288,z,1.7884243000298738,1,28,female
62,13,140,nw,NW,murselein,0.0,0.7366666666666667,189.68518610001772,190.7388852000004,m,1.053699099982623,1,28,female
63,13,52,rw,HF,hield,3.8191,0.5931292517006803,192.283690900018,193.43071300000884,z,1.1470220999908634,1,28,female
64,13,137,nw,NW,smaan,0.0,0.5507256235827664,194.98329449997985,196.15625559998443,m,1.1729611000046134,1,28,female
65,13,95,rw,HF,dood,4.6374,0.5565986394557824,197.6989045999944,198.85585390002237,z,1.156949300027918,1,28,female
66,13,155,nw,NW,pals,0.0,0.4868707482993197,200.39741259999573,201.5923944999813,m,1.194981899985578,1,28,female
67,13,156,nw,NW,loedsels,0.0,0.7686848072562358,203.13006890000543,204.24867719999747,m,1.1186082999920473,1,28,female
68,13,131,nw,NW,rogenten,0.0,0.6747845804988662,205.79575900000052,207.1407326000044,m,1.3449736000038683,1,28,female
69,13,126,nw,NW,zelijk,0.0,0.7470521541950114,208.67857009998988,210.39810280001257,m,1.7195327000226823,1,28,female
70,13,15,rw,LF,karpers,0.4771,0.6831292517006803,211.9439769000164,212.9168614000082,z,0.9728844999917784,1,28,female
71,13,33,rw,LF,woei,0.699,0.3439455782312925,214.4595367999864,215.2409521000227,z,0.7814153000363149,1,28,female
72,13,86,rw,HF,idee,4.3247,0.4575056689342404,216.7920462000184,217.7998710999964,z,1.0078248999780044,1,28,female
73,13,124,nw,NW,vebras,0.0,0.8917233560090703,219.34097139997172,220.86345710000023,m,1.5224857000284828,1,28,female
74,13,78,rw,HF,open,4.1693,0.3699092970521542,222.40717459999723,223.3934772000066,z,0.9863026000093668,1,28,female
75,13,69,rw,HF,sta,4.0123,0.4588888888888889,224.93966159998672,226.41479970002547,z,1.4751381000387482,1,28,female
76,13,161,nw,NW,gietsen,0.0,0.515827664399093,227.95501340000192,229.5475856999983,m,1.592572299996391,1,28,female
77,13,40,rw,LF,topaas,0.7782,0.75421768707483,231.0873383000144,232.16888910002308,z,1.0815508000086993,1,28,female
78,13,151,nw,NW,plirken,0.0,0.5466893424036281,233.7197745000012,234.645686200005,m,0.9259117000037804,1,28,female
79,13,50,rw,LF,gisten,0.9542,0.5466213151927438,236.18594749999465,237.7913125000196,m,1.6053650000249036,0,28,female
80,13,57,rw,HF,reden,3.8548,0.4158049886621315,239.33458839997184,241.0442053999868,z,1.7096170000149868,1,28,female
81,13,87,rw,HF,ging,4.3434,0.396734693877551,242.58349619997895,243.4695774000138,z,0.8860812000348233,1,28,female
82,13,163,nw,NW,plond,0.0,0.5671655328798186,245.01613629999335,246.14785060001304,m,1.1317143000196666,1,28,female
83,13,152,nw,NW,grede,0.0,0.5429478458049887,247.6983717000112,249.2136290000053,m,1.5152572999941183,1,28,female
84,13,181,nw,NW,herken,0.0,0.5039455782312925,250.7639518000069,251.9461729999748,z,1.1822211999678984,0,28,female
85,13,97,rw,HF,zeg,4.6872,0.488843537414966,253.4962305999943,254.90569560002768,z,1.4094650000333786,1,28,female
86,13,38,rw,LF,sfinxen,0.7782,0.6166213151927438,256.4453157000244,258.0107387999888,z,1.5654230999643914,1,28,female
87,13,68,rw,HF,soort,3.9872,0.6407256235827664,259.5610804000171,261.236032899993,z,1.674952499975916,1,28,female
88,13,32,rw,LF,suste,0.699,0.6104761904761905,262.7766188000096,264.0221925000078,z,1.2455736999982037,1,28,female
89,13,116,nw,NW,plenk,0.0,0.4568707482993197,265.55904070002725,266.44493529998,m,0.885894599952735,1,28,female
90,13,109,nw,NW,giep,0.0,0.4608390022675737,267.9918858999736,269.9379364000051,z,1.9460505000315609,0,28,female
91,13,150,nw,NW,knaarde,0.0,0.5770975056689343,271.49043040000834,272.71190190000925,m,1.2214715000009164,1,28,female
92,13,42,rw,LF,lome,0.8451,0.4866893424036281,274.2565078000189,275.3283102000132,m,1.0718023999943398,0,28,female
93,13,129,nw,NW,grantel,0.0,0.613718820861678,276.8720628999872,277.81419820000883,m,0.9421353000216186,1,28,female
94,13,144,nw,NW,ant,0.0,0.4819501133786848,279.3555300000007,280.9072917000158,m,1.5517617000150494,1,28,female
95,13,106,nw,NW,slont,0.0,0.6466439909297053,282.45333729998674,284.159607300011,m,1.706270000024233,1,28,female
96,13,59,rw,HF,redden,3.8783,0.3632426303854875,285.7022558000172,286.6273246000055,z,0.9250687999883668,1,28,female
97,13,36,rw,LF,metrum,0.7782,0.5541950113378685,288.16812849999405,289.42010180000216,z,1.2519733000081033,1,28,female
98,13,182,nw,NW,hormen,0.0,0.3752380952380952,290.9669407000183,292.6704905999941,m,1.7035498999757692,1,28,female
99,13,18,rw,LF,deun,0.6021,0.4665532879818594,294.2162077000248,295.9307654000004,z,1.7145576999755576,1,28,female
100,13,168,nw,NW,stiraal,0.0,0.770045351473923,297.4815805000253,299.5473785999929,m,2.065798099967651,1,28,female
101,13,104,nw,NW,goont,0.0,0.6195918367346939,301.0970746999956,302.1075663000229,m,1.010491600027308,1,28,female
102,13,192,nw,NW,megen,0.0,0.484172335600907,303.646189799998,304.6456117000198,m,0.9994219000218436,1,28,female
103,13,185,nw,NW,drintels,0.0,0.7725396825396825,306.1960604999913,307.171852200001,m,0.9757917000097224,1,28,female
104,13,62,rw,HF,gaf,3.923,0.5007256235827664,308.71158080000896,310.22153219999745,z,1.5099513999884948,1,28,female
105,13,110,nw,NW,women,0.0,0.4578684807256236,311.7601830000058,312.90416709997226,m,1.143984099966474,1,28,female
106,13,180,nw,NW,kijs,0.0,0.5234920634920635,314.4424336000229,315.571745400026,m,1.1293118000030518,1,28,female
107,13,125,nw,NW,kabrieken,0.0,0.5446258503401361,317.1084852999775,318.3698380999849,m,1.261352800007444,1,28,female
108,13,103,nw,NW,brum,0.0,0.3432879818594104,319.9073782999767,321.3514147999813,m,1.4440365000045858,1,28,female
109,13,83,rw,HF,vraag,4.281,0.615827664399093,322.889706499991,324.2898205000092,z,1.4001140000182204,1,28,female
110,13,176,nw,NW,kwarp,0.0,0.5111791383219955,325.8387092999765,326.94014640001114,m,1.1014371000346728,1,28,female
111,13,133,nw,NW,gefruld,0.0,0.88281179138322,328.48799059999874,329.8201642999775,m,1.332173699978739,1,28,female
112,13,96,rw,HF,zit,4.666,0.4542176870748299,331.3702325000195,332.49955429998226,z,1.1293217999627814,1,28,female
113,13,10,rw,LF,sikkels,0.301,0.7240136054421769,334.0359622000251,335.1456903999788,z,1.109728199953679,1,28,female
114,13,142,nw,NW,gardien,0.0,0.5500680272108843,336.685177700012,337.7820301000029,m,1.096852399990894,1,28,female
115,13,65,rw,HF,zoek,3.9398,0.4944671201814059,339.33439789997647,340.57963890000246,z,1.2452410000259988,1,28,female
116,13,113,nw,NW,vroel,0.0,0.5116326530612245,342.11654570000246,343.7819031000254,m,1.6653574000229128,1,28,female
117,13,174,nw,NW,bluurde,0.0,0.4874149659863945,345.3327926999773,346.97411579999607,m,1.641323100018781,1,28,female
118,13,127,nw,NW,sluinen,0.0,0.6306575963718821,348.51434489997337,349.85330670000985,m,1.3389618000364862,1,28,female
119,13,48,rw,LF,balkons,0.9542,0.7699773242630386,351.396774999972,352.5877107999986,z,1.1909358000266366,1,28,female
120,13,4,rw,LF,polders,0.301,0.5961451247165533,354.12909629999194,355.21167629997944,z,1.0825799999875017,1,28,female
121,13,173,nw,NW,klaap,0.0,0.5418140589569161,356.7614255999797,357.8579519999912,m,1.0965264000114985,1,28,female
122,13,72,rw,HF,lekker,4.082,0.3890249433106576,359.39400069997646,360.4240753999911,z,1.0300747000146655,1,28,female
123,13,6,rw,LF,puien,0.301,0.3691156462585034,361.9599272999913,362.9220099999802,m,0.9620826999889688,0,28,female
124,13,89,rw,HF,geweest,4.3568,0.7779138321995465,364.4591264000046,365.7859496999881,z,1.3268232999835163,1,28,female
125,13,189,nw,NW,trorg,0.0,0.5636507936507936,367.3246666999767,368.6099103000015,m,1.2852436000248415,1,28,female
126,13,123,nw,NW,kiemeten,0.0,0.6588888888888889,370.1575218000216,371.18905530002667,m,1.0315335000050254,1,28,female
127,13,102,nw,NW,labber,0.0,0.4050793650793651,372.7394687000197,373.7230012000073,m,0.983532499987632,1,28,female
128,13,28,rw,LF,klavier,0.699,0.6192970521541951,375.27265469997656,376.3129887999967,z,1.040334100020118,1,28,female
129,13,11,rw,LF,stekken,0.301,0.4987074829931973,377.85466110002017,379.1077808000264,z,1.253119700006209,1,28,female
130,13,74,rw,HF,help,4.0879,0.4439455782312925,380.6536929999711,381.53137099999,z,0.8776780000189319,1,28,female
131,13,114,nw,NW,gesmalpt,0.0,0.8913605442176871,383.06943560001673,384.4172937999829,m,1.34785819996614,1,28,female
132,13,27,rw,LF,flans,0.699,0.6479591836734694,385.9685625000275,386.8968777999981,m,0.9283152999705636,0,28,female
133,13,56,rw,HF,hard,3.8435,0.4832879818594104,388.4342433999991,389.5219578000251,z,1.087714400026016,1,28,female
134,13,84,rw,HF,auto,4.3017,0.4550793650793651,391.06699339998886,391.9315154000069,z,0.8645220000180416,1,28,female
135,13,145,nw,NW,bezans,0.0,0.7936507936507936,393.48285819997545,394.68027180002537,m,1.197413600049913,1,28,female
136,13,128,nw,NW,kandola,0.0,0.5002040816326531,396.23166499997023,398.19225189997815,z,1.960586900007911,0,28,female
137,13,80,rw,HF,eigen,4.1922,0.4820181405895691,399.73062899999786,400.7533507000189,z,1.0227217000210658,1,28,female
138,13,22,rw,LF,spurt,0.6021,0.6664625850340136,402.2963242999977,403.4342124999967,z,1.1378881999989972,1,28,female
139,13,178,nw,NW,gimmel,0.0,0.4918140589569161,404.97905879997415,406.5703569999896,m,1.5912982000154443,1,28,female
140,13,132,nw,NW,fradingo,0.0,0.7437868480725623,408.1111091999919,409.4969241999788,m,1.3858149999869056,1,28,female
141,13,111,nw,NW,kormel,0.0,0.4885487528344671,411.0434390999726,411.87454190000426,m,0.8311028000316583,1,28,female
142,13,70,rw,HF,juist,4.0152,0.5870521541950113,413.4258002000279,414.3246263000183,z,0.8988260999904014,1,28,female
143,13,35,rw,LF,margriet,0.7782,0.6709297052154195,415.8753238000209,416.6781241999706,z,0.8028003999497741,1,28,female
144,13,188,nw,NW,klaam,0.0,0.4651700680272109,418.2245452000061,419.2292187000276,m,1.004673500021454,1,28,female
145,13,47,rw,LF,venkel,0.9031,0.5343537414965986,420.7737261999864,421.6609636999783,z,0.8872374999918975,1,28,female
146,13,75,rw,HF,vroeg,4.1163,0.5487074829931973,423.20593769999687,424.0674899999867,z,0.861552299989853,1,28,female
147,13,153,nw,NW,entel,0.0,0.5228344671201814,425.60541820002254,426.6475456000189,m,1.0421273999963887,1,28,female
148,13,94,rw,HF,gedaan,4.5868,0.6245578231292517,428.187712199986,430.0779103999957,m,1.8901982000097632,0,28,female
149,13,13,rw,LF,gevels,0.4771,0.8220181405895691,431.619726600009,432.89134769997327,z,1.27162109996425,1,28,female
150,13,160,nw,NW,jaat,0.0,0.6258956916099774,434.4356410999899,435.6743617000175,m,1.238720600027591,1,28,female
151,13,158,nw,NW,rufel,0.0,0.5402267573696146,437.2178572000121,438.2747723999783,m,1.05691519996617,1,28,female
152,13,172,nw,NW,vlump,0.0,0.573469387755102,439.8176851000171,440.8097053000238,m,0.9920202000066638,1,28,female
153,13,119,nw,NW,doppel,0.0,0.3931292517006802,442.3494887999841,444.0530102999765,z,1.7035214999923485,0,28,female
154,13,17,rw,LF,clusters,0.6021,0.7289342403628117,445.5988753000274,447.0493561999756,z,1.450480899948161,1,28,female
155,13,170,nw,NW,moksen,0.0,0.514172335600907,448.5975269000046,449.75796840002295,m,1.1604415000183508,1,28,female
156,13,55,rw,HF,recht,3.8432,0.5463718820861678,451.2965101000154,452.6771440000157,m,1.380633900000248,0,28,female
157,13,23,rw,LF,strotten,0.6021,0.5194104308390023,454.2288211000268,455.8700647000224,z,1.641243599995505,1,28,female
158,13,139,nw,NW,stodeum,0.0,0.6441043083900226,457.4115348000196,458.64878350001527,m,1.237248699995689,1,28,female
159,13,190,nw,NW,ploe,0.0,0.233922902494331,460.19354010000825,462.0492565999739,m,1.855716499965638,1,28,female
160,13,107,nw,NW,gals,0.0,0.6466213151927438,463.5926287000184,465.90614430001006,m,2.313515599991661,1,28,female
161,13,193,nw,NW,nef,0.0,0.4258730158730158,467.4577320999815,469.1460683000041,m,1.6883362000226043,1,28,female
162,13,117,nw,NW,groeken,0.0,0.4692290249433106,470.6903870999813,471.7531465999782,m,1.0627594999969006,1,28,female
163,13,199,nw,NW,spodiel,0.0,0.7211791383219954,473.28899510001065,475.0099230000051,m,1.7209278999944218,1,28,female
164,13,147,nw,NW,kuukt,0.0,0.4436734693877551,476.5549960000208,477.8606883999892,m,1.3056923999683931,1,28,female
165,13,91,rw,HF,hele,4.4246,0.4885714285714285,479.40370109997457,480.80394409998553,z,1.4002430000109598,1,28,female
166,13,8,rw,LF,ratels,0.301,0.8842857142857142,482.35287409997545,484.2028925999766,z,1.8500185000011695,1,28,female
167,13,141,nw,NW,kimensie,0.0,0.666984126984127,485.7515740999952,486.7661615000106,m,1.0145874000154436,1,28,female
168,13,24,rw,LF,wrongel,0.6021,0.5386848072562358,488.3174967999803,489.7369663999998,m,1.4194696000195108,0,28,female
169,13,197,nw,NW,zerder,0.0,0.5083673469387755,491.2829695999972,492.6466741000186,m,1.363704500021413,1,28,female
170,13,177,nw,NW,rons,0.0,0.5964625850340136,494.19874229998095,496.49328150000656,z,2.29453920002561,0,28,female
171,13,143,nw,NW,rakot,0.0,0.6866439909297052,498.0307623000117,499.8844362000236,m,1.853673900011927,1,28,female
172,13,108,nw,NW,geslonden,0.0,0.7017006802721089,501.4297402999946,503.6479552999954,m,2.2182150000007823,1,28,female
173,13,184,nw,NW,rieve,0.0,0.4558049886621315,505.1951600000029,506.6767007000162,m,1.4815407000132836,1,28,female
174,13,19,rw,LF,etui,0.6021,0.4205895691609977,508.2273044000031,509.3745266000042,z,1.1472222000011243,1,28,female
175,13,45,rw,LF,grief,0.9031,0.5177777777777778,510.9265371999936,512.9289186000242,z,2.002381400030572,1,28,female
176,13,46,rw,LF,lijsters,0.9031,0.7591836734693878,514.4751889000181,515.6407660000259,z,1.1655771000077948,1,28,female
177,13,100,rw,HF,kom,5.0578,0.2878458049886621,517.1916313000256,518.4157718999777,z,1.2241405999520794,1,28,female
178,13,198,nw,NW,snarpen,0.0,0.6049886621315193,519.9566976000206,521.105436199985,m,1.1487385999644175,1,28,female
179,13,25,rw,LF,ambten,0.699,0.3910430839002267,522.6559301000088,524.7863982000272,m,2.1304681000183336,0,28,female
180,13,138,nw,NW,glaf,0.0,0.5436281179138323,526.3379082999891,527.5480822999962,m,1.2101740000071004,1,28,female
181,13,76,rw,HF,wachten,4.1516,0.4697052154195011,529.0868066999828,529.9539305000217,z,0.8671238000388257,1,28,female
182,13,105,nw,NW,jugen,0.0,0.5052607709750567,531.5028664999991,532.8060692999861,m,1.303202799987048,1,28,female
183,13,196,nw,NW,rokan,0.0,0.6312244897959184,534.3518168000155,535.7274156999774,m,1.3755988999619149,1,28,female
184,13,26,rw,LF,beitels,0.699,0.7305895691609977,537.2675490999827,538.2387396999984,z,0.9711906000156888,1,28,female
185,13,64,rw,HF,bezig,3.934,0.6209523809523809,539.7833858000231,540.779033800005,z,0.995647999981884,1,28,female
186,13,121,nw,NW,nammer,0.0,0.3958503401360544,542.3158842999837,543.9091149999877,m,1.5932307000039143,1,28,female
187,13,200,nw,NW,fankel,0.0,0.5785260770975057,545.4480824000202,546.9238566000131,m,1.475774199992884,1,28,female
188,13,191,nw,NW,darboen,0.0,0.6270748299319728,548.4639144000248,549.4738770999829,m,1.0099626999581233,1,28,female
189,13,3,rw,LF,imams,0.301,0.653968253968254,551.0130452999729,552.1013288000249,z,1.0882835000520572,1,28,female
190,13,146,nw,NW,gewunnen,0.0,0.5544671201814059,553.6455478999997,554.9402935000253,m,1.2947456000256352,1,28,female
191,13,122,nw,NW,bluit,0.0,0.7464399092970522,556.4777513999725,558.378351500025,m,1.900600100052543,1,28,female
192,13,9,rw,LF,reigers,0.301,0.7401587301587301,559.9265929000103,561.0208266000263,z,1.0942337000160478,1,28,female
193,13,154,nw,NW,gefaapt,0.0,0.8487528344671201,562.5591336999787,563.9952546000131,m,1.4361209000344388,1,28,female
194,13,134,nw,NW,vrijk,0.0,0.6648299319727892,565.5413441999699,566.9016571000102,m,1.3603129000402987,1,28,female
195,13,14,rw,LF,juffen,0.4771,0.4445124716553288,568.4407934999908,569.3103278999915,z,0.8695344000007026,1,28,female
196,13,63,rw,HF,begin,3.9267,0.4794784580498866,570.8558679000125,571.966881899978,z,1.1110139999655075,1,28,female
197,13,157,nw,NW,udel,0.0,0.3563038548752834,573.5055204000091,574.7148146000109,m,1.20929420000175,1,28,female
198,13,165,nw,NW,tombel,0.0,0.4472108843537415,576.2545941999997,578.5912631999818,m,2.3366689999820665,1,28,female
199,13,118,nw,NW,prookt,0.0,0.6648299319727892,580.1363772000186,581.2498931000009,m,1.1135158999823034,1,28,female
